session,task,run,subj,name,trial.type,load,numtrials,probe,iti,acc,rt,resp,cresp,time.cue.onset.abs,time.target.onset.abs,time.rt.abs,time.scan.start,trial.num,time.cue.onset,time.target.onset,time.rt,time.block1.on,time.block2.on,time.block3.on,time.block1.off,time.block2.off,time.block3.off,load01,load01.trial.type
baseline,Stern,1,107321,bas_ste_run1_107321,NP,5,3,syrup,4000,1,1767,2,2,144578,153378,155145,113754,1,30.824,39.624,41.391,28.424,256.421,484.417,228.021,456.031,684.028,LL5,LL5NP
baseline,Stern,1,107321,bas_ste_run1_107321,NN,8,2,scale,4000,1,995,1,1,158978,167777,168772,113754,2,45.224,54.023,55.018,28.424,256.421,484.417,228.021,456.031,684.028,not5,not5NN
baseline,Stern,1,107321,bas_ste_run1_107321,NN,8,2,doll,4000,1,1579,1,1,173377,182177,183756,113754,3,59.623,68.423,70.002,28.424,256.421,484.417,228.021,456.031,684.028,not5,not5NN
baseline,Stern,1,107321,bas_ste_run1_107321,NP,5,3,threat,1600,0,700,1,2,187777,196577,197277,113754,4,74.023,82.823,83.523,28.424,256.421,484.417,228.021,456.031,684.028,LL5,LL5NP
baseline,Stern,1,107321,bas_ste_run1_107321,NN,6,1,parrot,1600,1,926,1,1,199777,208577,209503,113754,5,86.023,94.823,95.749,28.424,256.421,484.417,228.021,456.031,684.028,not5,not5NN
baseline,Stern,1,107321,bas_ste_run1_107321,NP,8,2,chance,2800,1,1121,2,2,211777,220577,221698,113754,6,98.023,106.823,107.944,28.424,256.421,484.417,228.021,456.031,684.028,not5,not5NP
baseline,Stern,1,107321,bas_ste_run1_107321,NN,5,2,blur,2800,1,1094,1,1,224977,233777,234871,113754,7,111.223,120.023,121.117,28.424,256.421,484.417,228.021,456.031,684.028,LL5,LL5NN
baseline,Stern,1,107321,bas_ste_run1_107321,NP,7,2,rash,1600,1,881,2,2,238176,246976,247857,113754,8,124.422,133.222,134.103,28.424,256.421,484.417,228.021,456.031,684.028,not5,not5NP
baseline,Stern,1,107321,bas_ste_run1_107321,NN,5,2,tube,4000,1,526,1,1,250176,258976,259502,113754,9,136.422,145.222,145.748,28.424,256.421,484.417,228.021,456.031,684.028,LL5,LL5NN
baseline,Stern,1,107321,bas_ste_run1_107321,NP,5,3,share,2800,1,1224,2,2,264576,273376,274600,113754,10,150.822,159.622,160.846,28.424,256.421,484.417,228.021,456.031,684.028,LL5,LL5NP
baseline,Stern,1,107321,bas_ste_run1_107321,NP,7,2,wealth,1600,1,949,2,2,277776,286576,287525,113754,11,164.022,172.822,173.771,28.424,256.421,484.417,228.021,456.031,684.028,not5,not5NP
baseline,Stern,1,107321,bas_ste_run1_107321,NP,8,2,bush,1600,0,1257,1,2,289776,298576,299833,113754,12,176.022,184.822,186.079,28.424,256.421,484.417,228.021,456.031,684.028,not5,not5NP
baseline,Stern,1,107321,bas_ste_run1_107321,NN,7,1,straw,2800,1,814,1,1,301776,310575,311389,113754,13,188.022,196.821,197.635,28.424,256.421,484.417,228.021,456.031,684.028,not5,not5NN
baseline,Stern,1,107321,bas_ste_run1_107321,NP,6,1,frost,4000,1,1273,2,2,314975,323775,325048,113754,14,201.221,210.021,211.294,28.424,256.421,484.417,228.021,456.031,684.028,not5,not5NP
baseline,Stern,1,107321,bas_ste_run1_107321,RN,5,1,quart,2800,1,639,1,1,329375,338175,338814,113754,15,215.621,224.421,225.06,28.424,256.421,484.417,228.021,456.031,684.028,LL5,LL5RN
baseline,Stern,1,107321,bas_ste_run1_107321,NN,6,1,taxi,1600,1,1007,1,1,372575,381374,382381,113754,16,258.821,267.62,268.627,28.424,256.421,484.417,228.021,456.031,684.028,not5,not5NN
baseline,Stern,1,107321,bas_ste_run1_107321,NN,8,2,liar,2800,1,1236,1,1,384574,393374,394610,113754,17,270.82,279.62,280.856,28.424,256.421,484.417,228.021,456.031,684.028,not5,not5NN
baseline,Stern,1,107321,bas_ste_run1_107321,NP,7,2,need,2800,1,1538,2,2,397774,406574,408112,113754,18,284.02,292.82,294.358,28.424,256.421,484.417,228.021,456.031,684.028,not5,not5NP
baseline,Stern,1,107321,bas_ste_run1_107321,NP,7,2,bean,2800,1,611,2,2,410974,419774,420385,113754,19,297.22,306.02,306.631,28.424,256.421,484.417,228.021,456.031,684.028,not5,not5NP
baseline,Stern,1,107321,bas_ste_run1_107321,NP,8,3,bees,4000,1,700,2,2,424174,432974,433674,113754,20,310.42,319.22,319.92,28.424,256.421,484.417,228.021,456.031,684.028,not5,not5NP
baseline,Stern,1,107321,bas_ste_run1_107321,NP,5,3,visit,2800,1,800,2,2,438574,447373,448173,113754,21,324.82,333.619,334.419,28.424,256.421,484.417,228.021,456.031,684.028,LL5,LL5NP
baseline,Stern,1,107321,bas_ste_run1_107321,NN,7,1,logic,2800,1,723,1,1,451773,460573,461296,113754,22,338.019,346.819,347.542,28.424,256.421,484.417,228.021,456.031,684.028,not5,not5NN
baseline,Stern,1,107321,bas_ste_run1_107321,NP,5,3,people,4000,1,1048,2,2,464973,473773,474821,113754,23,351.219,360.019,361.067,28.424,256.421,484.417,228.021,456.031,684.028,LL5,LL5NP
baseline,Stern,1,107321,bas_ste_run1_107321,NN,8,2,heater,4000,1,1277,1,1,479373,488173,489450,113754,24,365.619,374.419,375.696,28.424,256.421,484.417,228.021,456.031,684.028,not5,not5NN
baseline,Stern,1,107321,bas_ste_run1_107321,RN,5,1,noise,4000,1,917,1,1,493773,502573,503490,113754,25,380.019,388.819,389.736,28.424,256.421,484.417,228.021,456.031,684.028,LL5,LL5RN
baseline,Stern,1,107321,bas_ste_run1_107321,NN,5,2,pole,1600,0,0,,1,508173,516972,0,113754,26,394.419,403.218,-113.754,28.424,256.421,484.417,228.021,456.031,684.028,LL5,LL5NN
baseline,Stern,1,107321,bas_ste_run1_107321,NP,8,3,city,1600,0,1241,1,2,520172,528972,530213,113754,27,406.418,415.218,416.459,28.424,256.421,484.417,228.021,456.031,684.028,not5,not5NP
baseline,Stern,1,107321,bas_ste_run1_107321,NP,8,3,carpet,1600,1,634,2,2,532172,540972,541606,113754,28,418.418,427.218,427.852,28.424,256.421,484.417,228.021,456.031,684.028,not5,not5NP
baseline,Stern,1,107321,bas_ste_run1_107321,NP,5,3,tags,1600,1,655,2,2,544172,552972,553627,113754,29,430.418,439.218,439.873,28.424,256.421,484.417,228.021,456.031,684.028,LL5,LL5NP
baseline,Stern,1,107321,bas_ste_run1_107321,NN,5,2,greed,4000,1,668,1,1,556172,564972,565640,113754,30,442.418,451.218,451.886,28.424,256.421,484.417,228.021,456.031,684.028,LL5,LL5NN
baseline,Stern,1,107321,bas_ste_run1_107321,NN,5,2,pans,2800,1,909,1,1,600571,609371,610280,113754,31,486.817,495.617,496.526,28.424,256.421,484.417,228.021,456.031,684.028,LL5,LL5NN
baseline,Stern,1,107321,bas_ste_run1_107321,NP,5,3,muscle,1600,1,1030,2,2,613771,622571,623601,113754,32,500.017,508.817,509.847,28.424,256.421,484.417,228.021,456.031,684.028,LL5,LL5NP
baseline,Stern,1,107321,bas_ste_run1_107321,NP,8,2,bugs,1600,1,662,2,2,625771,634571,635233,113754,33,512.017,520.817,521.479,28.424,256.421,484.417,228.021,456.031,684.028,not5,not5NP
baseline,Stern,1,107321,bas_ste_run1_107321,RN,5,1,fusion,2800,1,836,1,1,637771,646571,647407,113754,34,524.017,532.817,533.653,28.424,256.421,484.417,228.021,456.031,684.028,LL5,LL5RN
baseline,Stern,1,107321,bas_ste_run1_107321,NN,8,2,shell,2800,1,1172,1,1,650971,659770,660942,113754,35,537.217,546.016,547.188,28.424,256.421,484.417,228.021,456.031,684.028,not5,not5NN
baseline,Stern,1,107321,bas_ste_run1_107321,NP,7,1,clue,1600,1,1197,2,2,664170,672970,674167,113754,36,550.416,559.216,560.413,28.424,256.421,484.417,228.021,456.031,684.028,not5,not5NP
baseline,Stern,1,107321,bas_ste_run1_107321,NP,8,2,wife,4000,1,1855,2,2,676170,684970,686825,113754,37,562.416,571.216,573.071,28.424,256.421,484.417,228.021,456.031,684.028,not5,not5NP
baseline,Stern,1,107321,bas_ste_run1_107321,NN,5,2,gift,4000,1,1342,1,1,690570,699370,700712,113754,38,576.816,585.616,586.958,28.424,256.421,484.417,228.021,456.031,684.028,LL5,LL5NN
baseline,Stern,1,107321,bas_ste_run1_107321,NP,6,1,food,2800,1,1792,2,2,704970,713770,715562,113754,39,591.216,600.016,601.808,28.424,256.421,484.417,228.021,456.031,684.028,not5,not5NP
baseline,Stern,1,107321,bas_ste_run1_107321,RN,8,1,ground,4000,0,1850,2,1,718170,726969,728819,113754,40,604.416,613.215,615.065,28.424,256.421,484.417,228.021,456.031,684.028,not5,not5RN
baseline,Stern,1,107321,bas_ste_run1_107321,NP,5,3,marker,2800,1,808,2,2,732569,741369,742177,113754,41,618.815,627.615,628.423,28.424,256.421,484.417,228.021,456.031,684.028,LL5,LL5NP
baseline,Stern,1,107321,bas_ste_run1_107321,NN,8,2,signal,4000,1,955,1,1,745769,754569,755524,113754,42,632.015,640.815,641.77,28.424,256.421,484.417,228.021,456.031,684.028,not5,not5NN
baseline,Stern,1,107321,bas_ste_run1_107321,NP,5,3,curve,1600,1,994,2,2,760169,768969,769963,113754,43,646.415,655.215,656.209,28.424,256.421,484.417,228.021,456.031,684.028,LL5,LL5NP
baseline,Stern,1,107321,bas_ste_run1_107321,NN,7,2,pledge,1600,1,1157,1,1,772169,780969,782126,113754,44,658.415,667.215,668.372,28.424,256.421,484.417,228.021,456.031,684.028,not5,not5NN
baseline,Stern,1,107321,bas_ste_run1_107321,NN,7,2,berry,4000,1,1074,1,1,784169,792968,794042,113754,45,670.415,679.214,680.288,28.424,256.421,484.417,228.021,456.031,684.028,not5,not5NN
baseline,Stern,2,107321,bas_ste_run2_107321,NP,5,3,north,1600,1,1105,2,2,77790,86590,87695,46975,1,30.815,39.615,40.72,28.415,256.412,484.409,228.026,456.022,684.019,LL5,LL5NP
baseline,Stern,2,107321,bas_ste_run2_107321,NP,5,3,ransom,1600,1,802,2,2,89790,98590,99392,46975,2,42.815,51.615,52.417,28.415,256.412,484.409,228.026,456.022,684.019,LL5,LL5NP
baseline,Stern,2,107321,bas_ste_run2_107321,NN,5,2,chin,2800,1,645,1,1,101790,110590,111235,46975,3,54.815,63.615,64.26,28.415,256.412,484.409,228.026,456.022,684.019,LL5,LL5NN
baseline,Stern,2,107321,bas_ste_run2_107321,NN,6,1,whale,4000,1,827,1,1,114990,123789,124616,46975,4,68.015,76.814,77.641,28.415,256.412,484.409,228.026,456.022,684.019,not5,not5NN
baseline,Stern,2,107321,bas_ste_run2_107321,NN,8,2,cotton,1600,1,1073,1,1,129389,138189,139262,46975,5,82.414,91.214,92.287,28.415,256.412,484.409,228.026,456.022,684.019,not5,not5NN
baseline,Stern,2,107321,bas_ste_run2_107321,NP,5,3,wheel,4000,1,686,2,2,141389,150189,150875,46975,6,94.414,103.214,103.9,28.415,256.412,484.409,228.026,456.022,684.019,LL5,LL5NP
baseline,Stern,2,107321,bas_ste_run2_107321,RN,5,1,cabin,4000,0,0,,1,155789,164589,0,46975,7,108.814,117.614,-46.975,28.415,256.412,484.409,228.026,456.022,684.019,LL5,LL5RN
baseline,Stern,2,107321,bas_ste_run2_107321,NN,5,2,hatch,2800,1,820,1,1,170189,178989,179809,46975,8,123.214,132.014,132.834,28.415,256.412,484.409,228.026,456.022,684.019,LL5,LL5NN
baseline,Stern,2,107321,bas_ste_run2_107321,NN,7,1,flame,2800,1,912,1,1,183389,192188,193100,46975,9,136.414,145.213,146.125,28.415,256.412,484.409,228.026,456.022,684.019,not5,not5NN
baseline,Stern,2,107321,bas_ste_run2_107321,NP,6,1,dollar,2800,1,826,2,2,196588,205388,206214,46975,10,149.613,158.413,159.239,28.415,256.412,484.409,228.026,456.022,684.019,not5,not5NP
baseline,Stern,2,107321,bas_ste_run2_107321,NP,8,2,exam,4000,1,671,2,2,209788,218588,219259,46975,11,162.813,171.613,172.284,28.415,256.412,484.409,228.026,456.022,684.019,not5,not5NP
baseline,Stern,2,107321,bas_ste_run2_107321,NN,8,2,lesson,2800,1,817,1,1,224188,232988,233805,46975,12,177.213,186.013,186.83,28.415,256.412,484.409,228.026,456.022,684.019,not5,not5NN
baseline,Stern,2,107321,bas_ste_run2_107321,NP,7,1,teeth,1600,1,736,2,2,237388,246188,246924,46975,13,190.413,199.213,199.949,28.415,256.412,484.409,228.026,456.022,684.019,not5,not5NP
baseline,Stern,2,107321,bas_ste_run2_107321,NP,8,2,kids,4000,1,1369,2,2,249388,258188,259557,46975,14,202.413,211.213,212.582,28.415,256.412,484.409,228.026,456.022,684.019,not5,not5NP
baseline,Stern,2,107321,bas_ste_run2_107321,RN,7,1,jars,1600,0,979,2,1,263787,272587,273566,46975,15,216.812,225.612,226.591,28.415,256.412,484.409,228.026,456.022,684.019,not5,not5RN
baseline,Stern,2,107321,bas_ste_run2_107321,NP,5,3,harp,4000,1,953,2,2,305787,314587,315540,46975,16,258.812,267.612,268.565,28.415,256.412,484.409,228.026,456.022,684.019,LL5,LL5NP
baseline,Stern,2,107321,bas_ste_run2_107321,NN,8,2,sled,2800,1,780,1,1,320187,328986,329766,46975,17,273.212,282.011,282.791,28.415,256.412,484.409,228.026,456.022,684.019,not5,not5NN
baseline,Stern,2,107321,bas_ste_run2_107321,RN,8,1,house,1600,1,1114,1,1,333386,342186,343300,46975,18,286.411,295.211,296.325,28.415,256.412,484.409,228.026,456.022,684.019,not5,not5RN
baseline,Stern,2,107321,bas_ste_run2_107321,NP,5,3,store,1600,0,1924,1,2,345386,354186,356110,46975,19,298.411,307.211,309.135,28.415,256.412,484.409,228.026,456.022,684.019,LL5,LL5NP
baseline,Stern,2,107321,bas_ste_run2_107321,RN,5,1,soil,4000,1,1420,1,1,357386,366186,367606,46975,20,310.411,319.211,320.631,28.415,256.412,484.409,228.026,456.022,684.019,LL5,LL5RN
baseline,Stern,2,107321,bas_ste_run2_107321,NN,6,1,zebra,4000,1,774,1,1,371786,380586,381360,46975,21,324.811,333.611,334.385,28.415,256.412,484.409,228.026,456.022,684.019,not5,not5NN
baseline,Stern,2,107321,bas_ste_run2_107321,NP,8,2,action,1600,0,957,1,2,386186,394986,395943,46975,22,339.211,348.011,348.968,28.415,256.412,484.409,228.026,456.022,684.019,not5,not5NP
baseline,Stern,2,107321,bas_ste_run2_107321,NN,7,1,poison,2800,1,872,1,1,398185,406985,407857,46975,23,351.21,360.01,360.882,28.415,256.412,484.409,228.026,456.022,684.019,not5,not5NN
baseline,Stern,2,107321,bas_ste_run2_107321,NN,5,2,heaven,1600,1,898,1,1,411385,420185,421083,46975,24,364.41,373.21,374.108,28.415,256.412,484.409,228.026,456.022,684.019,LL5,LL5NN
baseline,Stern,2,107321,bas_ste_run2_107321,NP,8,2,text,2800,0,1294,1,2,423385,432185,433479,46975,25,376.41,385.21,386.504,28.415,256.412,484.409,228.026,456.022,684.019,not5,not5NP
baseline,Stern,2,107321,bas_ste_run2_107321,NP,5,3,others,1600,1,1149,2,2,436585,445385,446534,46975,26,389.61,398.41,399.559,28.415,256.412,484.409,228.026,456.022,684.019,LL5,LL5NP
baseline,Stern,2,107321,bas_ste_run2_107321,NP,7,2,crime,4000,0,1478,1,2,448585,457385,458863,46975,27,401.61,410.41,411.888,28.415,256.412,484.409,228.026,456.022,684.019,not5,not5NP
baseline,Stern,2,107321,bas_ste_run2_107321,NN,5,2,barber,2800,1,894,1,1,462985,471784,472678,46975,28,416.01,424.809,425.703,28.415,256.412,484.409,228.026,456.022,684.019,LL5,LL5NN
baseline,Stern,2,107321,bas_ste_run2_107321,NN,8,2,steel,2800,1,865,1,1,476184,484984,485849,46975,29,429.209,438.009,438.874,28.415,256.412,484.409,228.026,456.022,684.019,not5,not5NN
baseline,Stern,2,107321,bas_ste_run2_107321,NP,7,2,cherry,4000,1,983,2,2,489384,498184,499167,46975,30,442.409,451.209,452.192,28.415,256.412,484.409,228.026,456.022,684.019,not5,not5NP
baseline,Stern,2,107321,bas_ste_run2_107321,NN,7,2,book,1600,1,919,1,1,533784,542583,543502,46975,31,486.809,495.608,496.527,28.415,256.412,484.409,228.026,456.022,684.019,not5,not5NN
baseline,Stern,2,107321,bas_ste_run2_107321,NP,7,1,photo,4000,0,1250,1,2,545783,554583,555833,46975,32,498.808,507.608,508.858,28.415,256.412,484.409,228.026,456.022,684.019,not5,not5NP
baseline,Stern,2,107321,bas_ste_run2_107321,NP,6,1,profit,4000,1,1427,2,2,560183,568983,570410,46975,33,513.208,522.008,523.435,28.415,256.412,484.409,228.026,456.022,684.019,not5,not5NP
baseline,Stern,2,107321,bas_ste_run2_107321,NN,7,2,word,4000,1,847,1,1,574583,583383,584230,46975,34,527.608,536.408,537.255,28.415,256.412,484.409,228.026,456.022,684.019,not5,not5NN
baseline,Stern,2,107321,bas_ste_run2_107321,NP,8,3,paper,4000,1,903,2,2,588983,597783,598686,46975,35,542.008,550.808,551.711,28.415,256.412,484.409,228.026,456.022,684.019,not5,not5NP
baseline,Stern,2,107321,bas_ste_run2_107321,NP,8,3,pony,1600,0,0,,2,603383,612182,0,46975,36,556.408,565.207,-46.975,28.415,256.412,484.409,228.026,456.022,684.019,not5,not5NP
baseline,Stern,2,107321,bas_ste_run2_107321,NP,5,3,fluid,1600,1,943,2,2,615382,624182,625125,46975,37,568.407,577.207,578.15,28.415,256.412,484.409,228.026,456.022,684.019,LL5,LL5NP
baseline,Stern,2,107321,bas_ste_run2_107321,NN,8,1,church,1600,1,804,1,1,627382,636182,636986,46975,38,580.407,589.207,590.011,28.415,256.412,484.409,228.026,456.022,684.019,not5,not5NN
baseline,Stern,2,107321,bas_ste_run2_107321,NN,5,2,story,2800,1,1609,1,1,639382,648182,649791,46975,39,592.407,601.207,602.816,28.415,256.412,484.409,228.026,456.022,684.019,LL5,LL5NN
baseline,Stern,2,107321,bas_ste_run2_107321,NP,5,3,yard,2800,1,847,2,2,652582,661382,662229,46975,40,605.607,614.407,615.254,28.415,256.412,484.409,228.026,456.022,684.019,LL5,LL5NP
baseline,Stern,2,107321,bas_ste_run2_107321,RN,5,1,owner,1600,0,0,,1,665782,674582,0,46975,41,618.807,627.607,-46.975,28.415,256.412,484.409,228.026,456.022,684.019,LL5,LL5RN
baseline,Stern,2,107321,bas_ste_run2_107321,NP,5,3,honey,2800,1,841,2,2,677781,686581,687422,46975,42,630.806,639.606,640.447,28.415,256.412,484.409,228.026,456.022,684.019,LL5,LL5NP
baseline,Stern,2,107321,bas_ste_run2_107321,NN,6,1,cows,4000,1,886,1,1,690981,699781,700667,46975,43,644.006,652.806,653.692,28.415,256.412,484.409,228.026,456.022,684.019,not5,not5NN
baseline,Stern,2,107321,bas_ste_run2_107321,NP,8,3,pilot,2800,1,1633,2,2,705381,714181,715814,46975,44,658.406,667.206,668.839,28.415,256.412,484.409,228.026,456.022,684.019,not5,not5NP
baseline,Stern,2,107321,bas_ste_run2_107321,NN,5,2,train,2800,1,1107,1,1,718581,727381,728488,46975,45,671.606,680.406,681.513,28.415,256.412,484.409,228.026,456.022,684.019,LL5,LL5NN
proactive,Stern,1,107321,pro_ste_run1_107321,NN,2,2,vision,2800,1,1871,1,1,144809,153609,155480,114000,1,30.809,39.609,41.48,28.409,256.415,484.421,228.029,456.022,684.028,not5,not5NN
proactive,Stern,1,107321,pro_ste_run1_107321,NP,5,3,park,4000,1,948,2,2,158009,166808,167756,114000,2,44.009,52.808,53.756,28.409,256.415,484.421,228.029,456.022,684.028,LL5,LL5NP
proactive,Stern,1,107321,pro_ste_run1_107321,NN,4,1,idea,4000,1,617,1,1,172408,181208,181825,114000,3,58.408,67.208,67.825,28.409,256.415,484.421,228.029,456.022,684.028,not5,not5NN
proactive,Stern,1,107321,pro_ste_run1_107321,NP,5,3,boiler,4000,1,1064,2,2,186808,195607,196671,114000,4,72.808,81.607,82.671,28.409,256.415,484.421,228.029,456.022,684.028,LL5,LL5NP
proactive,Stern,1,107321,pro_ste_run1_107321,NP,3,2,ranch,2800,0,1035,1,2,201207,210007,211042,114000,5,87.207,96.007,97.042,28.409,256.415,484.421,228.029,456.022,684.028,not5,not5NP
proactive,Stern,1,107321,pro_ste_run1_107321,NN,5,2,deed,1600,1,1004,1,1,214407,223220,224224,114000,6,100.407,109.22,110.224,28.409,256.415,484.421,228.029,456.022,684.028,LL5,LL5NN
proactive,Stern,1,107321,pro_ste_run1_107321,NN,2,2,access,1600,1,1031,1,1,226420,235219,236250,114000,7,112.42,121.219,122.25,28.409,256.415,484.421,228.029,456.022,684.028,not5,not5NN
proactive,Stern,1,107321,pro_ste_run1_107321,NP,4,1,ways,1600,1,1070,2,2,238419,247219,248289,114000,8,124.419,133.219,134.289,28.409,256.415,484.421,228.029,456.022,684.028,not5,not5NP
proactive,Stern,1,107321,pro_ste_run1_107321,RN,5,1,keeper,2800,1,1669,1,1,250419,259219,260888,114000,9,136.419,145.219,146.888,28.409,256.415,484.421,228.029,456.022,684.028,LL5,LL5RN
proactive,Stern,1,107321,pro_ste_run1_107321,NN,5,2,item,4000,1,922,1,1,263619,272418,273340,114000,10,149.619,158.418,159.34,28.409,256.415,484.421,228.029,456.022,684.028,LL5,LL5NN
proactive,Stern,1,107321,pro_ste_run1_107321,NN,3,1,hope,1600,1,1106,1,1,278018,286818,287924,114000,11,164.018,172.818,173.924,28.409,256.415,484.421,228.029,456.022,684.028,not5,not5NN
proactive,Stern,1,107321,pro_ste_run1_107321,NP,5,3,parent,1600,1,997,2,2,290018,298817,299814,114000,12,176.018,184.817,185.814,28.409,256.415,484.421,228.029,456.022,684.028,LL5,LL5NP
proactive,Stern,1,107321,pro_ste_run1_107321,NP,2,2,dryer,2800,0,586,1,2,302017,310817,311403,114000,13,188.017,196.817,197.403,28.409,256.415,484.421,228.029,456.022,684.028,not5,not5NP
proactive,Stern,1,107321,pro_ste_run1_107321,NP,2,2,suit,4000,0,1102,1,2,315217,324017,325119,114000,14,201.217,210.017,211.119,28.409,256.415,484.421,228.029,456.022,684.028,not5,not5NP
proactive,Stern,1,107321,pro_ste_run1_107321,NP,3,2,nail,2800,1,874,2,2,329616,338416,339290,114000,15,215.616,224.416,225.29,28.409,256.415,484.421,228.029,456.022,684.028,not5,not5NP
proactive,Stern,1,107321,pro_ste_run1_107321,NP,5,3,menu,1600,1,1029,2,2,372815,381615,382644,114000,16,258.815,267.615,268.644,28.409,256.415,484.421,228.029,456.022,684.028,LL5,LL5NP
proactive,Stern,1,107321,pro_ste_run1_107321,NN,5,2,rage,2800,1,952,1,1,384815,393614,394566,114000,17,270.815,279.614,280.566,28.409,256.415,484.421,228.029,456.022,684.028,LL5,LL5NN
proactive,Stern,1,107321,pro_ste_run1_107321,NN,2,2,laser,4000,1,775,1,1,398014,406814,407589,114000,18,284.014,292.814,293.589,28.409,256.415,484.421,228.029,456.022,684.028,not5,not5NN
proactive,Stern,1,107321,pro_ste_run1_107321,NP,2,3,wool,2800,1,796,2,2,412414,421213,422009,114000,19,298.414,307.213,308.009,28.409,256.415,484.421,228.029,456.022,684.028,not5,not5NP
proactive,Stern,1,107321,pro_ste_run1_107321,NP,5,3,color,4000,1,1626,2,2,425613,434413,436039,114000,20,311.613,320.413,322.039,28.409,256.415,484.421,228.029,456.022,684.028,LL5,LL5NP
proactive,Stern,1,107321,pro_ste_run1_107321,NP,3,2,saint,2800,1,942,2,2,440013,448813,449755,114000,21,326.013,334.813,335.755,28.409,256.415,484.421,228.029,456.022,684.028,not5,not5NP
proactive,Stern,1,107321,pro_ste_run1_107321,NN,4,1,critic,4000,1,1053,1,1,453212,462012,463065,114000,22,339.212,348.012,349.065,28.409,256.415,484.421,228.029,456.022,684.028,not5,not5NN
proactive,Stern,1,107321,pro_ste_run1_107321,NN,5,2,roses,2800,1,688,1,1,467612,476412,477100,114000,23,353.612,362.412,363.1,28.409,256.415,484.421,228.029,456.022,684.028,LL5,LL5NN
proactive,Stern,1,107321,pro_ste_run1_107321,NN,3,1,rumor,4000,1,1058,1,1,480812,489611,490669,114000,24,366.812,375.611,376.669,28.409,256.415,484.421,228.029,456.022,684.028,not5,not5NN
proactive,Stern,1,107321,pro_ste_run1_107321,NP,3,2,heel,2800,1,790,2,2,495211,504011,504801,114000,25,381.211,390.011,390.801,28.409,256.415,484.421,228.029,456.022,684.028,not5,not5NP
proactive,Stern,1,107321,pro_ste_run1_107321,RN,5,1,shell,1600,1,1452,1,1,508411,517210,518662,114000,26,394.411,403.21,404.662,28.409,256.415,484.421,228.029,456.022,684.028,LL5,LL5RN
proactive,Stern,1,107321,pro_ste_run1_107321,NP,5,3,review,1600,1,1225,2,2,520410,529210,530435,114000,27,406.41,415.21,416.435,28.409,256.415,484.421,228.029,456.022,684.028,LL5,LL5NP
proactive,Stern,1,107321,pro_ste_run1_107321,NN,2,2,rash,1600,1,619,1,1,532410,541210,541829,114000,28,418.41,427.21,427.829,28.409,256.415,484.421,228.029,456.022,684.028,not5,not5NN
proactive,Stern,1,107321,pro_ste_run1_107321,NP,2,3,chip,4000,1,494,2,2,544410,553209,553703,114000,29,430.41,439.209,439.703,28.409,256.415,484.421,228.029,456.022,684.028,not5,not5NP
proactive,Stern,1,107321,pro_ste_run1_107321,NP,2,3,parade,1600,1,446,2,2,558809,567609,568055,114000,30,444.809,453.609,454.055,28.409,256.415,484.421,228.029,456.022,684.028,not5,not5NP
proactive,Stern,1,107321,pro_ste_run1_107321,NP,4,1,verse,2800,1,415,2,2,600808,609607,610022,114000,31,486.808,495.607,496.022,28.409,256.415,484.421,228.029,456.022,684.028,not5,not5NP
proactive,Stern,1,107321,pro_ste_run1_107321,NN,3,2,torch,1600,1,780,1,1,614007,622807,623587,114000,32,500.007,508.807,509.587,28.409,256.415,484.421,228.029,456.022,684.028,not5,not5NN
proactive,Stern,1,107321,pro_ste_run1_107321,NN,5,2,deal,2800,1,892,1,1,626007,634820,635712,114000,33,512.007,520.82,521.712,28.409,256.415,484.421,228.029,456.022,684.028,LL5,LL5NN
proactive,Stern,1,107321,pro_ste_run1_107321,NP,5,3,clay,2800,1,977,2,2,639220,648020,648997,114000,34,525.22,534.02,534.997,28.409,256.415,484.421,228.029,456.022,684.028,LL5,LL5NP
proactive,Stern,1,107321,pro_ste_run1_107321,NP,5,3,forest,1600,1,924,2,2,652419,661219,662143,114000,35,538.419,547.219,548.143,28.409,256.415,484.421,228.029,456.022,684.028,LL5,LL5NP
proactive,Stern,1,107321,pro_ste_run1_107321,NP,3,1,charge,4000,1,761,2,2,664419,673219,673980,114000,36,550.419,559.219,559.98,28.409,256.415,484.421,228.029,456.022,684.028,not5,not5NP
proactive,Stern,1,107321,pro_ste_run1_107321,NN,2,2,moose,1600,1,902,1,1,678819,687618,688520,114000,37,564.819,573.618,574.52,28.409,256.415,484.421,228.029,456.022,684.028,not5,not5NN
proactive,Stern,1,107321,pro_ste_run1_107321,RN,5,1,chest,4000,1,1124,1,1,690818,699618,700742,114000,38,576.818,585.618,586.742,28.409,256.415,484.421,228.029,456.022,684.028,LL5,LL5RN
proactive,Stern,1,107321,pro_ste_run1_107321,NP,2,2,paste,4000,1,1074,2,2,705218,714017,715091,114000,39,591.218,600.017,601.091,28.409,256.415,484.421,228.029,456.022,684.028,not5,not5NP
proactive,Stern,1,107321,pro_ste_run1_107321,NN,3,2,donor,1600,1,672,1,1,719617,728417,729089,114000,40,605.617,614.417,615.089,28.409,256.415,484.421,228.029,456.022,684.028,not5,not5NN
proactive,Stern,1,107321,pro_ste_run1_107321,NP,5,3,advice,2800,1,876,2,2,731617,740417,741293,114000,41,617.617,626.417,627.293,28.409,256.415,484.421,228.029,456.022,684.028,LL5,LL5NP
proactive,Stern,1,107321,pro_ste_run1_107321,NN,2,2,work,1600,1,630,1,1,744816,753616,754246,114000,42,630.816,639.616,640.246,28.409,256.415,484.421,228.029,456.022,684.028,not5,not5NN
proactive,Stern,1,107321,pro_ste_run1_107321,RN,2,1,bags,4000,1,1400,1,1,756816,765616,767016,114000,43,642.816,651.616,653.016,28.409,256.415,484.421,228.029,456.022,684.028,not5,not5RN
proactive,Stern,1,107321,pro_ste_run1_107321,NN,5,2,group,4000,1,1163,1,1,771216,780015,781178,114000,44,657.216,666.015,667.178,28.409,256.415,484.421,228.029,456.022,684.028,LL5,LL5NN
proactive,Stern,1,107321,pro_ste_run1_107321,NP,2,2,guys,2800,1,1127,2,2,785615,794415,795542,114000,45,671.615,680.415,681.542,28.409,256.415,484.421,228.029,456.022,684.028,not5,not5NP
proactive,Stern,2,107321,pro_ste_run2_107321,NN,4,1,campus,4000,1,698,1,1,114312,123112,123810,83499,1,30.813,39.613,40.311,28.414,256.42,484.412,228.02,456.026,684.019,not5,not5NN
proactive,Stern,2,107321,pro_ste_run2_107321,NP,5,3,snap,1600,1,907,2,2,128712,137512,138419,83499,2,45.213,54.013,54.92,28.414,256.42,484.412,228.02,456.026,684.019,LL5,LL5NP
proactive,Stern,2,107321,pro_ste_run2_107321,NP,4,1,belief,4000,1,896,2,2,140712,149511,150407,83499,3,57.213,66.012,66.908,28.414,256.42,484.412,228.02,456.026,684.019,not5,not5NP
proactive,Stern,2,107321,pro_ste_run2_107321,NP,3,1,drip,4000,1,673,2,2,155111,163911,164584,83499,4,71.612,80.412,81.085,28.414,256.42,484.412,228.02,456.026,684.019,not5,not5NP
proactive,Stern,2,107321,pro_ste_run2_107321,NP,2,2,bottle,4000,1,735,2,2,169511,178310,179045,83499,5,86.012,94.811,95.546,28.414,256.42,484.412,228.02,456.026,684.019,not5,not5NP
proactive,Stern,2,107321,pro_ste_run2_107321,RN,5,1,level,1600,1,1051,1,1,183910,192710,193761,83499,6,100.411,109.211,110.262,28.414,256.42,484.412,228.02,456.026,684.019,LL5,LL5RN
proactive,Stern,2,107321,pro_ste_run2_107321,NN,2,2,spice,2800,1,375,1,1,195910,204710,205085,83499,7,112.411,121.211,121.586,28.414,256.42,484.412,228.02,456.026,684.019,not5,not5NN
proactive,Stern,2,107321,pro_ste_run2_107321,NN,2,2,coal,4000,1,1022,1,1,209109,217909,218931,83499,8,125.61,134.41,135.432,28.414,256.42,484.412,228.02,456.026,684.019,not5,not5NN
proactive,Stern,2,107321,pro_ste_run2_107321,NN,3,1,film,2800,1,1046,1,1,223509,232309,233355,83499,9,140.01,148.81,149.856,28.414,256.42,484.412,228.02,456.026,684.019,not5,not5NN
proactive,Stern,2,107321,pro_ste_run2_107321,RN,3,1,singer,1600,1,790,1,1,236709,245508,246298,83499,10,153.21,162.009,162.799,28.414,256.42,484.412,228.02,456.026,684.019,not5,not5RN
proactive,Stern,2,107321,pro_ste_run2_107321,NN,5,2,herd,2800,1,733,1,1,248708,257508,258241,83499,11,165.209,174.009,174.742,28.414,256.42,484.412,228.02,456.026,684.019,LL5,LL5NN
proactive,Stern,2,107321,pro_ste_run2_107321,NP,5,3,flight,1600,0,1072,1,2,261908,270721,271793,83499,12,178.409,187.222,188.294,28.414,256.42,484.412,228.02,456.026,684.019,LL5,LL5NP
proactive,Stern,2,107321,pro_ste_run2_107321,NP,2,2,quote,2800,1,399,2,2,273921,282720,283119,83499,13,190.422,199.221,199.62,28.414,256.42,484.412,228.02,456.026,684.019,not5,not5NP
proactive,Stern,2,107321,pro_ste_run2_107321,NN,5,2,fury,1600,1,872,1,1,287120,295920,296792,83499,14,203.621,212.421,213.293,28.414,256.42,484.412,228.02,456.026,684.019,LL5,LL5NN
proactive,Stern,2,107321,pro_ste_run2_107321,NP,5,3,stroke,2800,1,1172,2,2,299120,307920,309092,83499,15,215.621,224.421,225.593,28.414,256.42,484.412,228.02,456.026,684.019,LL5,LL5NP
proactive,Stern,2,107321,pro_ste_run2_107321,NP,3,2,gold,4000,1,995,2,2,342319,351118,352113,83499,16,258.82,267.619,268.614,28.414,256.42,484.412,228.02,456.026,684.019,not5,not5NP
proactive,Stern,2,107321,pro_ste_run2_107321,NP,3,2,sailor,4000,1,963,2,2,356718,365518,366481,83499,17,273.219,282.019,282.982,28.414,256.42,484.412,228.02,456.026,684.019,not5,not5NP
proactive,Stern,2,107321,pro_ste_run2_107321,NP,5,3,thing,4000,1,884,2,2,371118,379917,380801,83499,18,287.619,296.418,297.302,28.414,256.42,484.412,228.02,456.026,684.019,LL5,LL5NP
proactive,Stern,2,107321,pro_ste_run2_107321,NN,5,2,kids,1600,1,983,1,1,385517,394317,395300,83499,19,302.018,310.818,311.801,28.414,256.42,484.412,228.02,456.026,684.019,LL5,LL5NN
proactive,Stern,2,107321,pro_ste_run2_107321,RN,2,1,onion,2800,1,747,1,1,397517,406316,407063,83499,20,314.018,322.817,323.564,28.414,256.42,484.412,228.02,456.026,684.019,not5,not5RN
proactive,Stern,2,107321,pro_ste_run2_107321,NP,5,3,grill,2800,1,1217,2,2,410716,419516,420733,83499,21,327.217,336.017,337.234,28.414,256.42,484.412,228.02,456.026,684.019,LL5,LL5NP
proactive,Stern,2,107321,pro_ste_run2_107321,NN,4,1,barber,1600,1,1072,1,1,423916,432716,433788,83499,22,340.417,349.217,350.289,28.414,256.42,484.412,228.02,456.026,684.019,not5,not5NN
proactive,Stern,2,107321,pro_ste_run2_107321,NN,2,2,flaw,2800,1,1507,1,1,435915,444715,446222,83499,23,352.416,361.216,362.723,28.414,256.42,484.412,228.02,456.026,684.019,not5,not5NN
proactive,Stern,2,107321,pro_ste_run2_107321,NN,3,1,grain,4000,1,972,1,1,449115,457915,458887,83499,24,365.616,374.416,375.388,28.414,256.42,484.412,228.02,456.026,684.019,not5,not5NN
proactive,Stern,2,107321,pro_ste_run2_107321,NP,2,2,nerve,2800,1,1153,2,2,463515,472314,473467,83499,25,380.016,388.815,389.968,28.414,256.42,484.412,228.02,456.026,684.019,not5,not5NP
proactive,Stern,2,107321,pro_ste_run2_107321,NP,5,3,class,1600,1,997,2,2,476714,485514,486511,83499,26,393.215,402.015,403.012,28.414,256.42,484.412,228.02,456.026,684.019,LL5,LL5NP
proactive,Stern,2,107321,pro_ste_run2_107321,NN,2,2,tally,2800,1,1180,1,1,488714,497514,498694,83499,27,405.215,414.015,415.195,28.414,256.42,484.412,228.02,456.026,684.019,not5,not5NN
proactive,Stern,2,107321,pro_ste_run2_107321,NP,2,2,photo,1600,1,1018,2,2,501913,510713,511731,83499,28,418.414,427.214,428.232,28.414,256.42,484.412,228.02,456.026,684.019,not5,not5NP
proactive,Stern,2,107321,pro_ste_run2_107321,NN,5,2,zebra,1600,1,1083,1,1,513913,522713,523796,83499,29,430.414,439.214,440.297,28.414,256.42,484.412,228.02,456.026,684.019,LL5,LL5NN
proactive,Stern,2,107321,pro_ste_run2_107321,RN,5,1,pupil,4000,1,1434,1,1,525913,534712,536146,83499,30,442.414,451.213,452.647,28.414,256.42,484.412,228.02,456.026,684.019,LL5,LL5RN
proactive,Stern,2,107321,pro_ste_run2_107321,NN,2,1,list,1600,1,1370,1,1,570311,579111,580481,83499,31,486.812,495.612,496.982,28.414,256.42,484.412,228.02,456.026,684.019,not5,not5NN
proactive,Stern,2,107321,pro_ste_run2_107321,NP,3,1,tissue,2800,1,1300,2,2,582311,591110,592410,83499,32,498.812,507.611,508.911,28.414,256.42,484.412,228.02,456.026,684.019,not5,not5NP
proactive,Stern,2,107321,pro_ste_run2_107321,NP,2,3,point,1600,1,987,2,2,595510,604310,605297,83499,33,512.011,520.811,521.798,28.414,256.42,484.412,228.02,456.026,684.019,not5,not5NP
proactive,Stern,2,107321,pro_ste_run2_107321,NN,5,2,output,4000,1,1074,1,1,607510,616310,617384,83499,34,524.011,532.811,533.885,28.414,256.42,484.412,228.02,456.026,684.019,LL5,LL5NN
proactive,Stern,2,107321,pro_ste_run2_107321,NP,5,3,finger,2800,1,1303,2,2,621910,630709,632012,83499,35,538.411,547.21,548.513,28.414,256.42,484.412,228.02,456.026,684.019,LL5,LL5NP
proactive,Stern,2,107321,pro_ste_run2_107321,NP,2,3,grace,2800,1,858,2,2,635109,643909,644767,83499,36,551.61,560.41,561.268,28.414,256.42,484.412,228.02,456.026,684.019,not5,not5NP
proactive,Stern,2,107321,pro_ste_run2_107321,NN,3,2,filter,2800,1,1218,1,1,648309,657108,658326,83499,37,564.81,573.609,574.827,28.414,256.42,484.412,228.02,456.026,684.019,not5,not5NN
proactive,Stern,2,107321,pro_ste_run2_107321,NP,5,3,click,1600,1,1559,2,2,661508,670308,671867,83499,38,578.009,586.809,588.368,28.414,256.42,484.412,228.02,456.026,684.019,LL5,LL5NP
proactive,Stern,2,107321,pro_ste_run2_107321,NN,3,2,cows,4000,1,1200,1,1,673508,682321,683521,83499,39,590.009,598.822,600.022,28.414,256.42,484.412,228.02,456.026,684.019,not5,not5NN
proactive,Stern,2,107321,pro_ste_run2_107321,RN,5,1,need,2800,1,1139,1,1,687921,696720,697859,83499,40,604.422,613.221,614.36,28.414,256.42,484.412,228.02,456.026,684.019,LL5,LL5RN
proactive,Stern,2,107321,pro_ste_run2_107321,NP,5,3,void,4000,1,1821,2,2,701120,709920,711741,83499,41,617.621,626.421,628.242,28.414,256.42,484.412,228.02,456.026,684.019,LL5,LL5NP
proactive,Stern,2,107321,pro_ste_run2_107321,NP,2,3,talent,1600,1,906,2,2,715520,724320,725226,83499,42,632.021,640.821,641.727,28.414,256.42,484.412,228.02,456.026,684.019,not5,not5NP
proactive,Stern,2,107321,pro_ste_run2_107321,NP,4,1,clown,1600,1,934,2,2,727519,736319,737253,83499,43,644.02,652.82,653.754,28.414,256.42,484.412,228.02,456.026,684.019,not5,not5NP
proactive,Stern,2,107321,pro_ste_run2_107321,NN,5,2,signal,4000,1,1018,1,1,739519,748319,749337,83499,44,656.02,664.82,665.838,28.414,256.42,484.412,228.02,456.026,684.019,LL5,LL5NN
proactive,Stern,2,107321,pro_ste_run2_107321,NN,4,1,grip,4000,1,1031,1,1,753919,762718,763749,83499,45,670.42,679.219,680.25,28.414,256.42,484.412,228.02,456.026,684.019,not5,not5NN
reactive,Stern,1,107321,rea_ste_run1_107321,NP,8,2,brow,1600,1,913,2,2,119077,127876,128789,88267,1,30.81,39.609,40.522,28.41,256.407,484.403,228.009,456.019,684.015,not5,not5NP
reactive,Stern,1,107321,rea_ste_run1_107321,RN,5,2,jets,4000,1,766,1,1,131076,139875,140641,88267,2,42.809,51.608,52.374,28.41,256.407,484.403,228.009,456.019,684.015,LL5,LL5RN
reactive,Stern,1,107321,rea_ste_run1_107321,NP,5,3,touch,1600,1,976,2,2,145475,154274,155250,88267,3,57.208,66.007,66.983,28.41,256.407,484.403,228.009,456.019,684.015,LL5,LL5NP
reactive,Stern,1,107321,rea_ste_run1_107321,NP,5,3,pound,2800,1,808,2,2,157474,166273,167081,88267,4,69.207,78.006,78.814,28.41,256.407,484.403,228.009,456.019,684.015,LL5,LL5NP
reactive,Stern,1,107321,rea_ste_run1_107321,RN,7,1,rivals,1600,1,912,1,1,170673,179472,180384,88267,5,82.406,91.205,92.117,28.41,256.407,484.403,228.009,456.019,684.015,not5,not5RN
reactive,Stern,1,107321,rea_ste_run1_107321,NP,6,1,name,2800,1,1440,2,2,182672,191472,192912,88267,6,94.405,103.205,104.645,28.41,256.407,484.403,228.009,456.019,684.015,not5,not5NP
reactive,Stern,1,107321,rea_ste_run1_107321,NP,7,2,world,2800,0,957,1,2,195871,204671,205628,88267,7,107.604,116.404,117.361,28.41,256.407,484.403,228.009,456.019,684.015,not5,not5NP
reactive,Stern,1,107321,rea_ste_run1_107321,RN,8,2,marker,4000,1,1038,1,1,209070,217870,218908,88267,8,120.803,129.603,130.641,28.41,256.407,484.403,228.009,456.019,684.015,not5,not5RN
reactive,Stern,1,107321,rea_ste_run1_107321,NP,5,3,wife,4000,1,1010,2,2,223469,232269,233279,88267,9,135.202,144.002,145.012,28.41,256.407,484.403,228.009,456.019,684.015,LL5,LL5NP
reactive,Stern,1,107321,rea_ste_run1_107321,RN,5,2,paper,1600,1,927,1,1,237868,246668,247595,88267,10,149.601,158.401,159.328,28.41,256.407,484.403,228.009,456.019,684.015,LL5,LL5RN
reactive,Stern,1,107321,rea_ste_run1_107321,NN,5,1,chin,4000,1,881,1,1,249867,258667,259548,88267,11,161.6,170.4,171.281,28.41,256.407,484.403,228.009,456.019,684.015,LL5,LL5NN
reactive,Stern,1,107321,rea_ste_run1_107321,NP,7,2,grill,2800,1,752,2,2,264280,273079,273831,88267,12,176.013,184.812,185.564,28.41,256.407,484.403,228.009,456.019,684.015,not5,not5NP
reactive,Stern,1,107321,rea_ste_run1_107321,RN,8,2,rhyme,2800,1,765,1,1,277479,286278,287043,88267,13,189.212,198.011,198.776,28.41,256.407,484.403,228.009,456.019,684.015,not5,not5RN
reactive,Stern,1,107321,rea_ste_run1_107321,NP,8,2,goods,4000,1,1373,2,2,290678,299477,300850,88267,14,202.411,211.21,212.583,28.41,256.407,484.403,228.009,456.019,684.015,not5,not5NP
reactive,Stern,1,107321,rea_ste_run1_107321,RN,6,1,reign,1600,1,1425,1,1,305077,313876,315301,88267,15,216.81,225.609,227.034,28.41,256.407,484.403,228.009,456.019,684.015,not5,not5RN
reactive,Stern,1,107321,rea_ste_run1_107321,NP,5,3,harbor,4000,1,966,2,2,347073,355873,356839,88267,16,258.806,267.606,268.572,28.41,256.407,484.403,228.009,456.019,684.015,LL5,LL5NP
reactive,Stern,1,107321,rea_ste_run1_107321,RN,7,1,boat,2800,1,1686,1,1,361472,370272,371958,88267,17,273.205,282.005,283.691,28.41,256.407,484.403,228.009,456.019,684.015,not5,not5RN
reactive,Stern,1,107321,rea_ste_run1_107321,RN,8,2,hour,2800,1,1033,1,1,374671,383471,384504,88267,18,286.404,295.204,296.237,28.41,256.407,484.403,228.009,456.019,684.015,not5,not5RN
reactive,Stern,1,107321,rea_ste_run1_107321,NP,8,3,tongue,1600,1,1084,2,2,387871,396670,397754,88267,19,299.604,308.403,309.487,28.41,256.407,484.403,228.009,456.019,684.015,not5,not5NP
reactive,Stern,1,107321,rea_ste_run1_107321,RN,6,1,beam,2800,1,1001,1,1,399870,408669,409670,88267,20,311.603,320.402,321.403,28.41,256.407,484.403,228.009,456.019,684.015,not5,not5RN
reactive,Stern,1,107321,rea_ste_run1_107321,NN,5,1,ruler,4000,1,826,1,1,413069,421868,422694,88267,21,324.802,333.601,334.427,28.41,256.407,484.403,228.009,456.019,684.015,LL5,LL5NN
reactive,Stern,1,107321,rea_ste_run1_107321,NP,5,3,dryer,1600,1,1036,2,2,427468,436267,437303,88267,22,339.201,348,349.036,28.41,256.407,484.403,228.009,456.019,684.015,LL5,LL5NP
reactive,Stern,1,107321,rea_ste_run1_107321,RN,8,2,jazz,2800,1,949,1,1,439467,448279,449228,88267,23,351.2,360.012,360.961,28.41,256.407,484.403,228.009,456.019,684.015,not5,not5RN
reactive,Stern,1,107321,rea_ste_run1_107321,RN,5,2,blaze,1600,1,882,1,1,452679,461478,462360,88267,24,364.412,373.211,374.093,28.41,256.407,484.403,228.009,456.019,684.015,LL5,LL5RN
reactive,Stern,1,107321,rea_ste_run1_107321,NP,8,3,visit,4000,0,689,1,2,464678,473478,474167,88267,25,376.411,385.211,385.9,28.41,256.407,484.403,228.009,456.019,684.015,not5,not5NP
reactive,Stern,1,107321,rea_ste_run1_107321,RN,5,2,ideals,1600,1,900,1,1,479077,487877,488777,88267,26,390.81,399.61,400.51,28.41,256.407,484.403,228.009,456.019,684.015,LL5,LL5RN
reactive,Stern,1,107321,rea_ste_run1_107321,NP,5,3,plate,4000,1,1176,2,2,491076,499876,501052,88267,27,402.809,411.609,412.785,28.41,256.407,484.403,228.009,456.019,684.015,LL5,LL5NP
reactive,Stern,1,107321,rea_ste_run1_107321,NP,7,2,spark,2800,1,915,2,2,505475,514275,515190,88267,28,417.208,426.008,426.923,28.41,256.407,484.403,228.009,456.019,684.015,not5,not5NP
reactive,Stern,1,107321,rea_ste_run1_107321,NP,8,3,males,4000,0,1576,1,2,518674,527474,529050,88267,29,430.407,439.207,440.783,28.41,256.407,484.403,228.009,456.019,684.015,not5,not5NP
reactive,Stern,1,107321,rea_ste_run1_107321,NP,7,2,setup,1600,1,875,2,2,533073,541873,542748,88267,30,444.806,453.606,454.481,28.41,256.407,484.403,228.009,456.019,684.015,not5,not5NP
reactive,Stern,1,107321,rea_ste_run1_107321,NP,5,3,answer,4000,1,1482,2,2,575070,583869,585351,88267,31,486.803,495.602,497.084,28.41,256.407,484.403,228.009,456.019,684.015,LL5,LL5NP
reactive,Stern,1,107321,rea_ste_run1_107321,RN,5,2,hawk,2800,0,0,,1,589469,598268,0,88267,32,501.202,510.001,-88.267,28.41,256.407,484.403,228.009,456.019,684.015,LL5,LL5RN
reactive,Stern,1,107321,rea_ste_run1_107321,NN,8,1,train,2800,1,644,1,1,602668,611467,612111,88267,33,514.401,523.2,523.844,28.41,256.407,484.403,228.009,456.019,684.015,not5,not5NN
reactive,Stern,1,107321,rea_ste_run1_107321,RN,8,2,poppy,1600,0,1070,2,1,615867,624680,625750,88267,34,527.6,536.413,537.483,28.41,256.407,484.403,228.009,456.019,684.015,not5,not5RN
reactive,Stern,1,107321,rea_ste_run1_107321,RN,7,2,wave,4000,1,1206,1,1,627880,636679,637885,88267,35,539.613,548.412,549.618,28.41,256.407,484.403,228.009,456.019,684.015,not5,not5RN
reactive,Stern,1,107321,rea_ste_run1_107321,RN,8,2,days,1600,1,573,1,1,642279,651078,651651,88267,36,554.012,562.811,563.384,28.41,256.407,484.403,228.009,456.019,684.015,not5,not5RN
reactive,Stern,1,107321,rea_ste_run1_107321,RN,7,2,need,2800,1,761,1,1,654278,663077,663838,88267,37,566.011,574.81,575.571,28.41,256.407,484.403,228.009,456.019,684.015,not5,not5RN
reactive,Stern,1,107321,rea_ste_run1_107321,NP,5,3,hose,2800,1,982,2,2,667477,676276,677258,88267,38,579.21,588.009,588.991,28.41,256.407,484.403,228.009,456.019,684.015,LL5,LL5NP
reactive,Stern,1,107321,rea_ste_run1_107321,RN,5,2,drip,4000,1,763,1,1,680676,689475,690238,88267,39,592.409,601.208,601.971,28.41,256.407,484.403,228.009,456.019,684.015,LL5,LL5RN
reactive,Stern,1,107321,rea_ste_run1_107321,NN,5,1,finger,4000,1,920,1,1,695075,703874,704794,88267,40,606.808,615.607,616.527,28.41,256.407,484.403,228.009,456.019,684.015,LL5,LL5NN
reactive,Stern,1,107321,rea_ste_run1_107321,NP,8,2,charge,2800,1,1498,2,2,709474,718273,719771,88267,41,621.207,630.006,631.504,28.41,256.407,484.403,228.009,456.019,684.015,not5,not5NP
reactive,Stern,1,107321,rea_ste_run1_107321,NP,7,1,drum,1600,1,1463,2,2,722673,731472,732935,88267,42,634.406,643.205,644.668,28.41,256.407,484.403,228.009,456.019,684.015,not5,not5NP
reactive,Stern,1,107321,rea_ste_run1_107321,NP,5,3,spell,1600,1,857,2,2,734672,743471,744328,88267,43,646.405,655.204,656.061,28.41,256.407,484.403,228.009,456.019,684.015,LL5,LL5NP
reactive,Stern,1,107321,rea_ste_run1_107321,NP,6,1,people,1600,0,1921,1,2,746671,755470,757391,88267,44,658.404,667.203,669.124,28.41,256.407,484.403,228.009,456.019,684.015,not5,not5NP
reactive,Stern,1,107321,rea_ste_run1_107321,NP,8,2,rattle,4000,1,446,2,2,758670,767469,767915,88267,45,670.403,679.202,679.648,28.41,256.407,484.403,228.009,456.019,684.015,not5,not5NP
reactive,Stern,2,107321,rea_ste_run2_107321,NN,5,1,food,4000,1,1111,1,1,92517,101316,102427,61699,1,30.818,39.617,40.728,28.418,256.414,484.411,228.016,456.026,684.023,LL5,LL5NN
reactive,Stern,2,107321,rea_ste_run2_107321,NP,8,2,rider,1600,1,736,2,2,106916,115715,116451,61699,2,45.217,54.016,54.752,28.418,256.414,484.411,228.016,456.026,684.023,not5,not5NP
reactive,Stern,2,107321,rea_ste_run2_107321,RN,8,2,slug,4000,1,1065,1,1,118915,127714,128779,61699,3,57.216,66.015,67.08,28.418,256.414,484.411,228.016,456.026,684.023,not5,not5RN
reactive,Stern,2,107321,rea_ste_run2_107321,RN,8,2,witch,4000,1,772,1,1,133314,142113,142885,61699,4,71.615,80.414,81.186,28.418,256.414,484.411,228.016,456.026,684.023,not5,not5RN
reactive,Stern,2,107321,rea_ste_run2_107321,RN,5,2,stain,2800,1,1182,1,1,147713,156512,157694,61699,5,86.014,94.813,95.995,28.418,256.414,484.411,228.016,456.026,684.023,LL5,LL5RN
reactive,Stern,2,107321,rea_ste_run2_107321,NN,7,1,herd,1600,1,550,1,1,160912,169711,170261,61699,6,99.213,108.012,108.562,28.418,256.414,484.411,228.016,456.026,684.023,not5,not5NN
reactive,Stern,2,107321,rea_ste_run2_107321,NP,7,1,flag,4000,0,567,1,2,172911,181710,182277,61699,7,111.212,120.011,120.578,28.418,256.414,484.411,228.016,456.026,684.023,not5,not5NP
reactive,Stern,2,107321,rea_ste_run2_107321,RN,6,1,maid,1600,0,1450,2,1,187310,196109,197559,61699,8,125.611,134.41,135.86,28.418,256.414,484.411,228.016,456.026,684.023,not5,not5RN
reactive,Stern,2,107321,rea_ste_run2_107321,NP,6,1,wall,4000,1,1453,2,2,199309,208108,209561,61699,9,137.61,146.409,147.862,28.418,256.414,484.411,228.016,456.026,684.023,not5,not5NP
reactive,Stern,2,107321,rea_ste_run2_107321,NP,5,3,zipper,1600,1,864,2,2,213708,222507,223371,61699,10,152.009,160.808,161.672,28.418,256.414,484.411,228.016,456.026,684.023,LL5,LL5NP
reactive,Stern,2,107321,rea_ste_run2_107321,RN,5,2,pair,2800,0,0,,1,225707,234506,0,61699,11,164.008,172.807,-61.699,28.418,256.414,484.411,228.016,456.026,684.023,LL5,LL5RN
reactive,Stern,2,107321,rea_ste_run2_107321,NP,8,2,tree,1600,1,860,2,2,238906,247705,248565,61699,12,177.207,186.006,186.866,28.418,256.414,484.411,228.016,456.026,684.023,not5,not5NP
reactive,Stern,2,107321,rea_ste_run2_107321,NP,5,3,photo,2800,0,983,1,2,250905,259704,260687,61699,13,189.206,198.005,198.988,28.418,256.414,484.411,228.016,456.026,684.023,LL5,LL5NP
reactive,Stern,2,107321,rea_ste_run2_107321,NP,5,3,girl,2800,1,1120,2,2,264104,272917,274037,61699,14,202.405,211.218,212.338,28.418,256.414,484.411,228.016,456.026,684.023,LL5,LL5NP
reactive,Stern,2,107321,rea_ste_run2_107321,RN,7,1,quart,2800,0,615,2,1,277316,286116,286731,61699,15,215.617,224.417,225.032,28.418,256.414,484.411,228.016,456.026,684.023,not5,not5RN
reactive,Stern,2,107321,rea_ste_run2_107321,NN,8,1,rest,4000,1,1114,1,1,320513,329313,330427,61699,16,258.814,267.614,268.728,28.418,256.414,484.411,228.016,456.026,684.023,not5,not5NN
reactive,Stern,2,107321,rea_ste_run2_107321,NP,7,2,singer,4000,0,822,1,2,334912,343711,344533,61699,17,273.213,282.012,282.834,28.418,256.414,484.411,228.016,456.026,684.023,not5,not5NP
reactive,Stern,2,107321,rea_ste_run2_107321,RN,8,2,prince,4000,1,689,1,1,349311,358110,358799,61699,18,287.612,296.411,297.1,28.418,256.414,484.411,228.016,456.026,684.023,not5,not5RN
reactive,Stern,2,107321,rea_ste_run2_107321,NP,5,3,pals,1600,1,1051,2,2,363710,372509,373560,61699,19,302.011,310.81,311.861,28.418,256.414,484.411,228.016,456.026,684.023,LL5,LL5NP
reactive,Stern,2,107321,rea_ste_run2_107321,NP,5,3,cotton,1600,1,1048,2,2,375709,384508,385556,61699,20,314.01,322.809,323.857,28.418,256.414,484.411,228.016,456.026,684.023,LL5,LL5NP
reactive,Stern,2,107321,rea_ste_run2_107321,NP,5,3,chest,4000,1,897,2,2,387708,396508,397405,61699,21,326.009,334.809,335.706,28.418,256.414,484.411,228.016,456.026,684.023,LL5,LL5NP
reactive,Stern,2,107321,rea_ste_run2_107321,NP,8,2,dawn,2800,1,1485,2,2,402107,410907,412392,61699,22,340.408,349.208,350.693,28.418,256.414,484.411,228.016,456.026,684.023,not5,not5NP
reactive,Stern,2,107321,rea_ste_run2_107321,RN,5,2,praise,4000,1,816,1,1,415306,424106,424922,61699,23,353.607,362.407,363.223,28.418,256.414,484.411,228.016,456.026,684.023,LL5,LL5RN
reactive,Stern,2,107321,rea_ste_run2_107321,RN,5,2,walker,1600,1,1290,1,1,429705,438505,439795,61699,24,368.006,376.806,378.096,28.418,256.414,484.411,228.016,456.026,684.023,LL5,LL5RN
reactive,Stern,2,107321,rea_ste_run2_107321,NN,5,1,grass,2800,1,851,1,1,441704,450504,451355,61699,25,380.005,388.805,389.656,28.418,256.414,484.411,228.016,456.026,684.023,LL5,LL5NN
reactive,Stern,2,107321,rea_ste_run2_107321,NP,8,2,charm,2800,1,915,2,2,454917,463716,464631,61699,26,393.218,402.017,402.932,28.418,256.414,484.411,228.016,456.026,684.023,not5,not5NP
reactive,Stern,2,107321,rea_ste_run2_107321,RN,8,2,barber,2800,1,1113,1,1,468116,476915,478028,61699,27,406.417,415.216,416.329,28.418,256.414,484.411,228.016,456.026,684.023,not5,not5RN
reactive,Stern,2,107321,rea_ste_run2_107321,RN,6,1,motor,1600,1,491,1,1,481315,490114,490605,61699,28,419.616,428.415,428.906,28.418,256.414,484.411,228.016,456.026,684.023,not5,not5RN
reactive,Stern,2,107321,rea_ste_run2_107321,RN,7,1,east,1600,1,1007,1,1,493314,502113,503120,61699,29,431.615,440.414,441.421,28.418,256.414,484.411,228.016,456.026,684.023,not5,not5RN
reactive,Stern,2,107321,rea_ste_run2_107321,NP,7,2,oats,2800,0,966,1,2,505313,514112,515078,61699,30,443.614,452.413,453.379,28.418,256.414,484.411,228.016,456.026,684.023,not5,not5NP
reactive,Stern,2,107321,rea_ste_run2_107321,NP,8,3,slip,2800,1,918,2,2,548510,557309,558227,61699,31,486.811,495.61,496.528,28.418,256.414,484.411,228.016,456.026,684.023,not5,not5NP
reactive,Stern,2,107321,rea_ste_run2_107321,RN,7,2,note,1600,1,1701,1,1,561709,570508,572209,61699,32,500.01,508.809,510.51,28.418,256.414,484.411,228.016,456.026,684.023,not5,not5RN
reactive,Stern,2,107321,rea_ste_run2_107321,RN,5,2,tile,1600,1,729,1,1,573708,582507,583236,61699,33,512.009,520.808,521.537,28.418,256.414,484.411,228.016,456.026,684.023,LL5,LL5RN
reactive,Stern,2,107321,rea_ste_run2_107321,NP,5,3,winner,4000,1,793,2,2,585707,594506,595299,61699,34,524.008,532.807,533.6,28.418,256.414,484.411,228.016,456.026,684.023,LL5,LL5NP
reactive,Stern,2,107321,rea_ste_run2_107321,NN,5,1,flick,1600,1,1135,1,1,600106,608905,610040,61699,35,538.407,547.206,548.341,28.418,256.414,484.411,228.016,456.026,684.023,LL5,LL5NN
reactive,Stern,2,107321,rea_ste_run2_107321,NP,8,3,glove,1600,0,680,1,2,612105,620904,621584,61699,36,550.406,559.205,559.885,28.418,256.414,484.411,228.016,456.026,684.023,not5,not5NP
reactive,Stern,2,107321,rea_ste_run2_107321,RN,5,2,list,4000,0,1540,2,1,624104,632917,634457,61699,37,562.405,571.218,572.758,28.418,256.414,484.411,228.016,456.026,684.023,LL5,LL5RN
reactive,Stern,2,107321,rea_ste_run2_107321,NP,5,3,beach,4000,1,936,2,2,638517,647316,648252,61699,38,576.818,585.617,586.553,28.418,256.414,484.411,228.016,456.026,684.023,LL5,LL5NP
reactive,Stern,2,107321,rea_ste_run2_107321,NP,5,3,bugs,1600,0,1158,1,2,652915,661715,662873,61699,39,591.216,600.016,601.174,28.418,256.414,484.411,228.016,456.026,684.023,LL5,LL5NP
reactive,Stern,2,107321,rea_ste_run2_107321,NP,7,1,suit,2800,0,1680,1,2,664915,673714,675394,61699,40,603.216,612.015,613.695,28.418,256.414,484.411,228.016,456.026,684.023,not5,not5NP
reactive,Stern,2,107321,rea_ste_run2_107321,RN,8,1,dock,4000,1,793,1,1,678114,686913,687706,61699,41,616.415,625.214,626.007,28.418,256.414,484.411,228.016,456.026,684.023,not5,not5RN
reactive,Stern,2,107321,rea_ste_run2_107321,RN,6,1,folder,2800,0,1335,2,1,692513,701312,702647,61699,42,630.814,639.613,640.948,28.418,256.414,484.411,228.016,456.026,684.023,not5,not5RN
reactive,Stern,2,107321,rea_ste_run2_107321,NP,8,3,owner,2800,1,547,2,2,705712,714511,715058,61699,43,644.013,652.812,653.359,28.418,256.414,484.411,228.016,456.026,684.023,not5,not5NP
reactive,Stern,2,107321,rea_ste_run2_107321,NP,6,1,washer,4000,1,1184,2,2,718911,727710,728894,61699,44,657.212,666.011,667.195,28.418,256.414,484.411,228.016,456.026,684.023,not5,not5NP
reactive,Stern,2,107321,rea_ste_run2_107321,RN,7,2,void,2800,0,1629,2,1,733310,742109,743738,61699,45,671.611,680.41,682.039,28.418,256.414,484.411,228.016,456.026,684.023,not5,not5RN
baseline,Stern,1,115825,bas_ste_run1_115825,NP,5,3,syrup,4000,1,977,2,2,139071,147869,148846,108253,1,30.818,39.616,40.593,28.418,256.432,484.429,228.036,456.033,684.031,LL5,LL5NP
baseline,Stern,1,115825,bas_ste_run1_115825,NN,8,2,scale,2800,1,970,1,1,153468,162267,163237,108253,2,45.215,54.014,54.984,28.418,256.432,484.429,228.036,456.033,684.031,not5,not5NN
baseline,Stern,1,115825,bas_ste_run1_115825,NN,8,2,doll,2800,1,958,1,1,166683,175481,176439,108253,3,58.43,67.228,68.186,28.418,256.432,484.429,228.036,456.033,684.031,not5,not5NN
baseline,Stern,1,115825,bas_ste_run1_115825,NP,5,3,threat,1600,1,775,2,2,179881,188679,189454,108253,4,71.628,80.426,81.201,28.418,256.432,484.429,228.036,456.033,684.031,LL5,LL5NP
baseline,Stern,1,115825,bas_ste_run1_115825,NN,6,1,parrot,1600,1,1033,1,1,191879,200677,201710,108253,5,83.626,92.424,93.457,28.418,256.432,484.429,228.036,456.033,684.031,not5,not5NN
baseline,Stern,1,115825,bas_ste_run1_115825,NP,8,2,chance,4000,1,1060,2,2,203877,212676,213736,108253,6,95.624,104.423,105.483,28.418,256.432,484.429,228.036,456.033,684.031,not5,not5NP
baseline,Stern,1,115825,bas_ste_run1_115825,NN,5,2,blur,4000,0,1749,2,1,218275,227073,228822,108253,7,110.022,118.82,120.569,28.418,256.432,484.429,228.036,456.033,684.031,LL5,LL5NN
baseline,Stern,1,115825,bas_ste_run1_115825,NP,7,2,rash,1600,1,787,2,2,232672,241471,242258,108253,8,124.419,133.218,134.005,28.418,256.432,484.429,228.036,456.033,684.031,not5,not5NP
baseline,Stern,1,115825,bas_ste_run1_115825,NN,5,2,tube,4000,1,1124,1,1,244670,253469,254593,108253,9,136.417,145.216,146.34,28.418,256.432,484.429,228.036,456.033,684.031,LL5,LL5NN
baseline,Stern,1,115825,bas_ste_run1_115825,NP,5,3,share,1600,1,827,2,2,259068,267867,268694,108253,10,150.815,159.614,160.441,28.418,256.432,484.429,228.036,456.033,684.031,LL5,LL5NP
baseline,Stern,1,115825,bas_ste_run1_115825,NP,7,2,wealth,4000,1,763,2,2,271083,279882,280645,108253,11,162.83,171.629,172.392,28.418,256.432,484.429,228.036,456.033,684.031,not5,not5NP
baseline,Stern,1,115825,bas_ste_run1_115825,NP,8,2,bush,2800,1,806,2,2,285481,294279,295085,108253,12,177.228,186.026,186.832,28.418,256.432,484.429,228.036,456.033,684.031,not5,not5NP
baseline,Stern,1,115825,bas_ste_run1_115825,NN,7,1,straw,2800,1,1181,1,1,298679,307477,308658,108253,13,190.426,199.224,200.405,28.418,256.432,484.429,228.036,456.033,684.031,not5,not5NN
baseline,Stern,1,115825,bas_ste_run1_115825,NP,6,1,frost,2800,1,661,2,2,311876,320675,321336,108253,14,203.623,212.422,213.083,28.418,256.432,484.429,228.036,456.033,684.031,not5,not5NP
baseline,Stern,1,115825,bas_ste_run1_115825,RN,5,1,quart,1600,0,807,2,1,325074,333873,334680,108253,15,216.821,225.62,226.427,28.418,256.432,484.429,228.036,456.033,684.031,LL5,LL5RN
baseline,Stern,1,115825,bas_ste_run1_115825,NN,6,1,taxi,2800,1,593,1,1,367068,375883,376476,108253,16,258.815,267.63,268.223,28.418,256.432,484.429,228.036,456.033,684.031,not5,not5NN
baseline,Stern,1,115825,bas_ste_run1_115825,NN,8,2,liar,2800,1,883,1,1,380282,389081,389964,108253,17,272.029,280.828,281.711,28.418,256.432,484.429,228.036,456.033,684.031,not5,not5NN
baseline,Stern,1,115825,bas_ste_run1_115825,NP,7,2,need,2800,0,840,1,2,393480,402279,403119,108253,18,285.227,294.026,294.866,28.418,256.432,484.429,228.036,456.033,684.031,not5,not5NP
baseline,Stern,1,115825,bas_ste_run1_115825,NP,7,2,bean,4000,1,1088,2,2,406678,415477,416565,108253,19,298.425,307.224,308.312,28.418,256.432,484.429,228.036,456.033,684.031,not5,not5NP
baseline,Stern,1,115825,bas_ste_run1_115825,NP,8,3,bees,2800,1,845,2,2,421076,429874,430719,108253,20,312.823,321.621,322.466,28.418,256.432,484.429,228.036,456.033,684.031,not5,not5NP
baseline,Stern,1,115825,bas_ste_run1_115825,NP,5,3,visit,1600,1,933,2,2,434274,443072,444005,108253,21,326.021,334.819,335.752,28.418,256.432,484.429,228.036,456.033,684.031,LL5,LL5NP
baseline,Stern,1,115825,bas_ste_run1_115825,NN,7,1,logic,1600,1,789,1,1,446272,455070,455859,108253,22,338.019,346.817,347.606,28.418,256.432,484.429,228.036,456.033,684.031,not5,not5NN
baseline,Stern,1,115825,bas_ste_run1_115825,NP,5,3,people,1600,1,1206,2,2,458270,467069,468275,108253,23,350.017,358.816,360.022,28.418,256.432,484.429,228.036,456.033,684.031,LL5,LL5NP
baseline,Stern,1,115825,bas_ste_run1_115825,NN,8,2,heater,4000,1,1067,1,1,470268,479083,480150,108253,24,362.015,370.83,371.897,28.418,256.432,484.429,228.036,456.033,684.031,not5,not5NN
baseline,Stern,1,115825,bas_ste_run1_115825,RN,5,1,noise,1600,0,925,2,1,484682,493481,494406,108253,25,376.429,385.228,386.153,28.418,256.432,484.429,228.036,456.033,684.031,LL5,LL5RN
baseline,Stern,1,115825,bas_ste_run1_115825,NN,5,2,pole,2800,1,718,1,1,496681,505479,506197,108253,26,388.428,397.226,397.944,28.418,256.432,484.429,228.036,456.033,684.031,LL5,LL5NN
baseline,Stern,1,115825,bas_ste_run1_115825,NP,8,3,city,1600,1,1385,2,2,509878,518677,520062,108253,27,401.625,410.424,411.809,28.418,256.432,484.429,228.036,456.033,684.031,not5,not5NP
baseline,Stern,1,115825,bas_ste_run1_115825,NP,8,3,carpet,4000,1,620,2,2,521877,530675,531295,108253,28,413.624,422.422,423.042,28.418,256.432,484.429,228.036,456.033,684.031,not5,not5NP
baseline,Stern,1,115825,bas_ste_run1_115825,NP,5,3,tags,4000,1,876,2,2,536274,545073,545949,108253,29,428.021,436.82,437.696,28.418,256.432,484.429,228.036,456.033,684.031,LL5,LL5NP
baseline,Stern,1,115825,bas_ste_run1_115825,NN,5,2,greed,4000,1,817,1,1,550672,559471,560288,108253,30,442.419,451.218,452.035,28.418,256.432,484.429,228.036,456.033,684.031,LL5,LL5NN
baseline,Stern,1,115825,bas_ste_run1_115825,NN,5,2,pans,4000,1,803,1,1,595082,603880,604683,108253,31,486.829,495.627,496.43,28.418,256.432,484.429,228.036,456.033,684.031,LL5,LL5NN
baseline,Stern,1,115825,bas_ste_run1_115825,NP,5,3,muscle,1600,0,0,,2,609479,618278,0,108253,32,501.226,510.025,-108.253,28.418,256.432,484.429,228.036,456.033,684.031,LL5,LL5NP
baseline,Stern,1,115825,bas_ste_run1_115825,NP,8,2,bugs,2800,0,778,1,2,621477,630276,631054,108253,33,513.224,522.023,522.801,28.418,256.432,484.429,228.036,456.033,684.031,not5,not5NP
baseline,Stern,1,115825,bas_ste_run1_115825,RN,5,1,fusion,1600,1,663,1,1,634675,643474,644137,108253,34,526.422,535.221,535.884,28.418,256.432,484.429,228.036,456.033,684.031,LL5,LL5RN
baseline,Stern,1,115825,bas_ste_run1_115825,NN,8,2,shell,4000,1,786,1,1,646673,655472,656258,108253,35,538.42,547.219,548.005,28.418,256.432,484.429,228.036,456.033,684.031,not5,not5NN
baseline,Stern,1,115825,bas_ste_run1_115825,NP,7,1,clue,2800,1,860,2,2,661071,669870,670730,108253,36,552.818,561.617,562.477,28.418,256.432,484.429,228.036,456.033,684.031,not5,not5NP
baseline,Stern,1,115825,bas_ste_run1_115825,NP,8,2,wife,1600,1,1267,2,2,674269,683068,684335,108253,37,566.016,574.815,576.082,28.418,256.432,484.429,228.036,456.033,684.031,not5,not5NP
baseline,Stern,1,115825,bas_ste_run1_115825,NN,5,2,gift,1600,1,734,1,1,686267,695082,695816,108253,38,578.014,586.829,587.563,28.418,256.432,484.429,228.036,456.033,684.031,LL5,LL5NN
baseline,Stern,1,115825,bas_ste_run1_115825,NP,6,1,food,1600,1,1135,2,2,698282,707080,708215,108253,39,590.029,598.827,599.962,28.418,256.432,484.429,228.036,456.033,684.031,not5,not5NP
baseline,Stern,1,115825,bas_ste_run1_115825,RN,8,1,ground,2800,1,839,1,1,710280,719079,719918,108253,40,602.027,610.826,611.665,28.418,256.432,484.429,228.036,456.033,684.031,not5,not5RN
baseline,Stern,1,115825,bas_ste_run1_115825,NP,5,3,marker,4000,1,777,2,2,723478,732277,733054,108253,41,615.225,624.024,624.801,28.418,256.432,484.429,228.036,456.033,684.031,LL5,LL5NP
baseline,Stern,1,115825,bas_ste_run1_115825,NN,8,2,signal,2800,1,1035,1,1,737876,746674,747709,108253,42,629.623,638.421,639.456,28.418,256.432,484.429,228.036,456.033,684.031,not5,not5NN
baseline,Stern,1,115825,bas_ste_run1_115825,NP,5,3,curve,2800,0,1762,1,2,751074,759872,761634,108253,43,642.821,651.619,653.381,28.418,256.432,484.429,228.036,456.033,684.031,LL5,LL5NP
baseline,Stern,1,115825,bas_ste_run1_115825,NN,7,2,pledge,4000,1,708,1,1,764271,773070,773778,108253,44,656.018,664.817,665.525,28.418,256.432,484.429,228.036,456.033,684.031,not5,not5NN
baseline,Stern,1,115825,bas_ste_run1_115825,NN,7,2,berry,4000,1,727,1,1,778669,787468,788195,108253,45,670.416,679.215,679.942,28.418,256.432,484.429,228.036,456.033,684.031,not5,not5NN
baseline,Stern,2,115825,bas_ste_run2_115825,NP,5,3,north,4000,1,827,2,2,75779,84578,85405,44967,1,30.812,39.611,40.438,28.412,256.41,484.423,228.031,456.028,684.025,LL5,LL5NP
baseline,Stern,2,115825,bas_ste_run2_115825,NP,5,3,ransom,2800,1,779,2,2,90177,98975,99754,44967,2,45.21,54.008,54.787,28.412,256.41,484.423,228.031,456.028,684.025,LL5,LL5NP
baseline,Stern,2,115825,bas_ste_run2_115825,NN,5,2,chin,2800,1,855,1,1,103375,112190,113045,44967,3,58.408,67.223,68.078,28.412,256.41,484.423,228.031,456.028,684.025,LL5,LL5NN
baseline,Stern,2,115825,bas_ste_run2_115825,NN,6,1,whale,2800,1,1029,1,1,116589,125388,126417,44967,4,71.622,80.421,81.45,28.412,256.41,484.423,228.031,456.028,684.025,not5,not5NN
baseline,Stern,2,115825,bas_ste_run2_115825,NN,8,2,cotton,1600,1,1046,1,1,129787,138586,139632,44967,5,84.82,93.619,94.665,28.412,256.41,484.423,228.031,456.028,684.025,not5,not5NN
baseline,Stern,2,115825,bas_ste_run2_115825,NP,5,3,wheel,1600,1,715,2,2,141785,150584,151299,44967,6,96.818,105.617,106.332,28.412,256.41,484.423,228.031,456.028,684.025,LL5,LL5NP
baseline,Stern,2,115825,bas_ste_run2_115825,RN,5,1,cabin,4000,0,762,2,1,153783,162582,163344,44967,7,108.816,117.615,118.377,28.412,256.41,484.423,228.031,456.028,684.025,LL5,LL5RN
baseline,Stern,2,115825,bas_ste_run2_115825,NN,5,2,hatch,1600,1,1032,1,1,168181,176980,178012,44967,8,123.214,132.013,133.045,28.412,256.41,484.423,228.031,456.028,684.025,LL5,LL5NN
baseline,Stern,2,115825,bas_ste_run2_115825,NN,7,1,flame,2800,1,899,1,1,180179,188978,189877,44967,9,135.212,144.011,144.91,28.412,256.41,484.423,228.031,456.028,684.025,not5,not5NN
baseline,Stern,2,115825,bas_ste_run2_115825,NP,6,1,dollar,1600,0,1404,1,2,193377,202176,203580,44967,10,148.41,157.209,158.613,28.412,256.41,484.423,228.031,456.028,684.025,not5,not5NP
baseline,Stern,2,115825,bas_ste_run2_115825,NP,8,2,exam,1600,1,596,2,2,205375,214174,214770,44967,11,160.408,169.207,169.803,28.412,256.41,484.423,228.031,456.028,684.025,not5,not5NP
baseline,Stern,2,115825,bas_ste_run2_115825,NN,8,2,lesson,2800,1,697,1,1,217390,226189,226886,44967,12,172.423,181.222,181.919,28.412,256.41,484.423,228.031,456.028,684.025,not5,not5NN
baseline,Stern,2,115825,bas_ste_run2_115825,NP,7,1,teeth,4000,1,723,2,2,230588,239386,240109,44967,13,185.621,194.419,195.142,28.412,256.41,484.423,228.031,456.028,684.025,not5,not5NP
baseline,Stern,2,115825,bas_ste_run2_115825,NP,8,2,kids,4000,1,1331,2,2,244986,253784,255115,44967,14,200.019,208.817,210.148,28.412,256.41,484.423,228.031,456.028,684.025,not5,not5NP
baseline,Stern,2,115825,bas_ste_run2_115825,RN,7,1,jars,4000,1,783,1,1,259383,268182,268965,44967,15,214.416,223.215,223.998,28.412,256.41,484.423,228.031,456.028,684.025,not5,not5RN
baseline,Stern,2,115825,bas_ste_run2_115825,NP,5,3,harp,1600,1,745,2,2,303776,312575,313320,44967,16,258.809,267.608,268.353,28.412,256.41,484.423,228.031,456.028,684.025,LL5,LL5NP
baseline,Stern,2,115825,bas_ste_run2_115825,NN,8,2,sled,1600,1,901,1,1,315774,324590,325491,44967,17,270.807,279.623,280.524,28.412,256.41,484.423,228.031,456.028,684.025,not5,not5NN
baseline,Stern,2,115825,bas_ste_run2_115825,RN,8,1,house,1600,0,0,,1,327789,336588,0,44967,18,282.822,291.621,-44.967,28.412,256.41,484.423,228.031,456.028,684.025,not5,not5RN
baseline,Stern,2,115825,bas_ste_run2_115825,NP,5,3,store,4000,0,589,1,2,339787,348586,349175,44967,19,294.82,303.619,304.208,28.412,256.41,484.423,228.031,456.028,684.025,LL5,LL5NP
baseline,Stern,2,115825,bas_ste_run2_115825,RN,5,1,soil,4000,0,951,2,1,354185,362984,363935,44967,20,309.218,318.017,318.968,28.412,256.41,484.423,228.031,456.028,684.025,LL5,LL5RN
baseline,Stern,2,115825,bas_ste_run2_115825,NN,6,1,zebra,2800,1,659,1,1,368583,377381,378040,44967,21,323.616,332.414,333.073,28.412,256.41,484.423,228.031,456.028,684.025,not5,not5NN
baseline,Stern,2,115825,bas_ste_run2_115825,NP,8,2,action,2800,1,775,2,2,381781,390579,391354,44967,22,336.814,345.612,346.387,28.412,256.41,484.423,228.031,456.028,684.025,not5,not5NP
baseline,Stern,2,115825,bas_ste_run2_115825,NN,7,1,poison,2800,1,1131,1,1,394978,403777,404908,44967,23,350.011,358.81,359.941,28.412,256.41,484.423,228.031,456.028,684.025,not5,not5NN
baseline,Stern,2,115825,bas_ste_run2_115825,NN,5,2,heaven,1600,1,544,1,1,408176,416975,417519,44967,24,363.209,372.008,372.552,28.412,256.41,484.423,228.031,456.028,684.025,LL5,LL5NN
baseline,Stern,2,115825,bas_ste_run2_115825,NP,8,2,text,4000,1,701,2,2,420174,428990,429691,44967,25,375.207,384.023,384.724,28.412,256.41,484.423,228.031,456.028,684.025,not5,not5NP
baseline,Stern,2,115825,bas_ste_run2_115825,NP,5,3,others,1600,1,990,2,2,434589,443387,444377,44967,26,389.622,398.42,399.41,28.412,256.41,484.423,228.031,456.028,684.025,LL5,LL5NP
baseline,Stern,2,115825,bas_ste_run2_115825,NP,7,2,crime,2800,1,853,2,2,446587,455386,456239,44967,27,401.62,410.419,411.272,28.412,256.41,484.423,228.031,456.028,684.025,not5,not5NP
baseline,Stern,2,115825,bas_ste_run2_115825,NN,5,2,barber,4000,1,760,1,1,459785,468583,469343,44967,28,414.818,423.616,424.376,28.412,256.41,484.423,228.031,456.028,684.025,LL5,LL5NN
baseline,Stern,2,115825,bas_ste_run2_115825,NN,8,2,steel,2800,1,912,1,1,474183,482981,483893,44967,29,429.216,438.014,438.926,28.412,256.41,484.423,228.031,456.028,684.025,not5,not5NN
baseline,Stern,2,115825,bas_ste_run2_115825,NP,7,2,cherry,4000,1,831,2,2,487380,496179,497010,44967,30,442.413,451.212,452.043,28.412,256.41,484.423,228.031,456.028,684.025,not5,not5NP
baseline,Stern,2,115825,bas_ste_run2_115825,NN,7,2,book,4000,1,936,1,1,531790,540589,541525,44967,31,486.823,495.622,496.558,28.412,256.41,484.423,228.031,456.028,684.025,not5,not5NN
baseline,Stern,2,115825,bas_ste_run2_115825,NP,7,1,photo,1600,0,975,1,2,546188,554986,555961,44967,32,501.221,510.019,510.994,28.412,256.41,484.423,228.031,456.028,684.025,not5,not5NP
baseline,Stern,2,115825,bas_ste_run2_115825,NP,6,1,profit,4000,1,899,2,2,558186,566985,567884,44967,33,513.219,522.018,522.917,28.412,256.41,484.423,228.031,456.028,684.025,not5,not5NP
baseline,Stern,2,115825,bas_ste_run2_115825,NN,7,2,word,2800,1,1145,1,1,572584,581382,582527,44967,34,527.617,536.415,537.56,28.412,256.41,484.423,228.031,456.028,684.025,not5,not5NN
baseline,Stern,2,115825,bas_ste_run2_115825,NP,8,3,paper,2800,1,809,2,2,585782,594580,595389,44967,35,540.815,549.613,550.422,28.412,256.41,484.423,228.031,456.028,684.025,not5,not5NP
baseline,Stern,2,115825,bas_ste_run2_115825,NP,8,3,pony,1600,0,1054,1,2,598979,607778,608832,44967,36,554.012,562.811,563.865,28.412,256.41,484.423,228.031,456.028,684.025,not5,not5NP
baseline,Stern,2,115825,bas_ste_run2_115825,NP,5,3,fluid,4000,1,678,2,2,610978,619776,620454,44967,37,566.011,574.809,575.487,28.412,256.41,484.423,228.031,456.028,684.025,LL5,LL5NP
baseline,Stern,2,115825,bas_ste_run2_115825,NN,8,1,church,4000,1,1231,1,1,625375,634174,635405,44967,38,580.408,589.207,590.438,28.412,256.41,484.423,228.031,456.028,684.025,not5,not5NN
baseline,Stern,2,115825,bas_ste_run2_115825,NN,5,2,story,4000,1,876,1,1,639790,648588,649464,44967,39,594.823,603.621,604.497,28.412,256.41,484.423,228.031,456.028,684.025,LL5,LL5NN
baseline,Stern,2,115825,bas_ste_run2_115825,NP,5,3,yard,1600,1,1114,2,2,654187,662986,664100,44967,40,609.22,618.019,619.133,28.412,256.41,484.423,228.031,456.028,684.025,LL5,LL5NP
baseline,Stern,2,115825,bas_ste_run2_115825,RN,5,1,owner,2800,1,867,1,1,666185,674984,675851,44967,41,621.218,630.017,630.884,28.412,256.41,484.423,228.031,456.028,684.025,LL5,LL5RN
baseline,Stern,2,115825,bas_ste_run2_115825,NP,5,3,honey,1600,0,0,,2,679383,688182,0,44967,42,634.416,643.215,-44.967,28.412,256.41,484.423,228.031,456.028,684.025,LL5,LL5NP
baseline,Stern,2,115825,bas_ste_run2_115825,NN,6,1,cows,2800,1,987,1,1,691381,700180,701167,44967,43,646.414,655.213,656.2,28.412,256.41,484.423,228.031,456.028,684.025,not5,not5NN
baseline,Stern,2,115825,bas_ste_run2_115825,NP,8,3,pilot,1600,1,747,2,2,704579,713378,714125,44967,44,659.612,668.411,669.158,28.412,256.41,484.423,228.031,456.028,684.025,not5,not5NP
baseline,Stern,2,115825,bas_ste_run2_115825,NN,5,2,train,2800,1,610,1,1,716577,725376,725986,44967,45,671.61,680.409,681.019,28.412,256.41,484.423,228.031,456.028,684.025,LL5,LL5NN
proactive,Stern,1,115825,pro_ste_run1_115825,NN,2,2,vision,4000,1,1086,1,1,142699,151498,152584,111883,1,30.816,39.615,40.701,28.417,256.414,484.411,228.018,456.016,684.029,not5,not5NN
proactive,Stern,1,115825,pro_ste_run1_115825,NP,5,3,park,2800,1,887,2,2,157097,165896,166783,111883,2,45.214,54.013,54.9,28.417,256.414,484.411,228.018,456.016,684.029,LL5,LL5NP
proactive,Stern,1,115825,pro_ste_run1_115825,NN,4,1,idea,2800,1,1212,1,1,170295,179094,180306,111883,3,58.412,67.211,68.423,28.417,256.414,484.411,228.018,456.016,684.029,not5,not5NN
proactive,Stern,1,115825,pro_ste_run1_115825,NP,5,3,boiler,2800,1,798,2,2,183493,192292,193090,111883,4,71.61,80.409,81.207,28.417,256.414,484.411,228.018,456.016,684.029,LL5,LL5NP
proactive,Stern,1,115825,pro_ste_run1_115825,NP,3,2,ranch,4000,1,856,2,2,196691,205506,206362,111883,5,84.808,93.623,94.479,28.417,256.414,484.411,228.018,456.016,684.029,not5,not5NP
proactive,Stern,1,115825,pro_ste_run1_115825,NN,5,2,deed,2800,1,904,1,1,211105,219904,220808,111883,6,99.222,108.021,108.925,28.417,256.414,484.411,228.018,456.016,684.029,LL5,LL5NN
proactive,Stern,1,115825,pro_ste_run1_115825,NN,2,2,access,4000,1,783,1,1,224303,233102,233885,111883,7,112.42,121.219,122.002,28.417,256.414,484.411,228.018,456.016,684.029,not5,not5NN
proactive,Stern,1,115825,pro_ste_run1_115825,NP,4,1,ways,1600,1,860,2,2,238701,247499,248359,111883,8,126.818,135.616,136.476,28.417,256.414,484.411,228.018,456.016,684.029,not5,not5NP
proactive,Stern,1,115825,pro_ste_run1_115825,RN,5,1,keeper,4000,0,986,2,1,250699,259498,260484,111883,9,138.816,147.615,148.601,28.417,256.414,484.411,228.018,456.016,684.029,LL5,LL5RN
proactive,Stern,1,115825,pro_ste_run1_115825,NN,5,2,item,1600,1,818,1,1,265097,273895,274713,111883,10,153.214,162.012,162.83,28.417,256.414,484.411,228.018,456.016,684.029,LL5,LL5NN
proactive,Stern,1,115825,pro_ste_run1_115825,NN,3,1,hope,2800,1,1198,1,1,277095,285893,287091,111883,11,165.212,174.01,175.208,28.417,256.414,484.411,228.018,456.016,684.029,not5,not5NN
proactive,Stern,1,115825,pro_ste_run1_115825,NP,5,3,parent,1600,0,1447,1,2,290293,299091,300538,111883,12,178.41,187.208,188.655,28.417,256.414,484.411,228.018,456.016,684.029,LL5,LL5NP
proactive,Stern,1,115825,pro_ste_run1_115825,NP,2,2,dryer,1600,1,1509,2,2,302291,311106,312615,111883,13,190.408,199.223,200.732,28.417,256.414,484.411,228.018,456.016,684.029,not5,not5NP
proactive,Stern,1,115825,pro_ste_run1_115825,NP,2,2,suit,4000,0,1435,1,2,314305,323104,324539,111883,14,202.422,211.221,212.656,28.417,256.414,484.411,228.018,456.016,684.029,not5,not5NP
proactive,Stern,1,115825,pro_ste_run1_115825,NP,3,2,nail,1600,0,1037,1,2,328703,337502,338539,111883,15,216.82,225.619,226.656,28.417,256.414,484.411,228.018,456.016,684.029,not5,not5NP
proactive,Stern,1,115825,pro_ste_run1_115825,NP,5,3,menu,4000,0,0,,2,370697,379495,0,111883,16,258.814,267.612,-111.883,28.417,256.414,484.411,228.018,456.016,684.029,LL5,LL5NP
proactive,Stern,1,115825,pro_ste_run1_115825,NN,5,2,rage,4000,1,1682,1,1,385094,393893,395575,111883,17,273.211,282.01,283.692,28.417,256.414,484.411,228.018,456.016,684.029,LL5,LL5NN
proactive,Stern,1,115825,pro_ste_run1_115825,NN,2,2,laser,2800,1,561,1,1,399492,408291,408852,111883,18,287.609,296.408,296.969,28.417,256.414,484.411,228.018,456.016,684.029,not5,not5NN
proactive,Stern,1,115825,pro_ste_run1_115825,NP,2,3,wool,2800,1,804,2,2,412690,421505,422309,111883,19,300.807,309.622,310.426,28.417,256.414,484.411,228.018,456.016,684.029,not5,not5NP
proactive,Stern,1,115825,pro_ste_run1_115825,NP,5,3,color,4000,0,1282,1,2,425904,434703,435985,111883,20,314.021,322.82,324.102,28.417,256.414,484.411,228.018,456.016,684.029,LL5,LL5NP
proactive,Stern,1,115825,pro_ste_run1_115825,NP,3,2,saint,4000,1,1059,2,2,440302,449101,450160,111883,21,328.419,337.218,338.277,28.417,256.414,484.411,228.018,456.016,684.029,not5,not5NP
proactive,Stern,1,115825,pro_ste_run1_115825,NN,4,1,critic,1600,1,1088,1,1,454700,463499,464587,111883,22,342.817,351.616,352.704,28.417,256.414,484.411,228.018,456.016,684.029,not5,not5NN
proactive,Stern,1,115825,pro_ste_run1_115825,NN,5,2,roses,1600,1,1313,1,1,466698,475497,476810,111883,23,354.815,363.614,364.927,28.417,256.414,484.411,228.018,456.016,684.029,LL5,LL5NN
proactive,Stern,1,115825,pro_ste_run1_115825,NN,3,1,rumor,4000,1,718,1,1,478696,487495,488213,111883,24,366.813,375.612,376.33,28.417,256.414,484.411,228.018,456.016,684.029,not5,not5NN
proactive,Stern,1,115825,pro_ste_run1_115825,NP,3,2,heel,1600,1,1412,2,2,493094,501892,503304,111883,25,381.211,390.009,391.421,28.417,256.414,484.411,228.018,456.016,684.029,not5,not5NP
proactive,Stern,1,115825,pro_ste_run1_115825,RN,5,1,shell,2800,0,711,2,1,505092,513891,514602,111883,26,393.209,402.008,402.719,28.417,256.414,484.411,228.018,456.016,684.029,LL5,LL5RN
proactive,Stern,1,115825,pro_ste_run1_115825,NP,5,3,review,1600,1,675,2,2,518290,527105,527780,111883,27,406.407,415.222,415.897,28.417,256.414,484.411,228.018,456.016,684.029,LL5,LL5NP
proactive,Stern,1,115825,pro_ste_run1_115825,NN,2,2,rash,2800,1,1076,1,1,530305,539103,540179,111883,28,418.422,427.22,428.296,28.417,256.414,484.411,228.018,456.016,684.029,not5,not5NN
proactive,Stern,1,115825,pro_ste_run1_115825,NP,2,3,chip,1600,1,566,2,2,543502,552301,552867,111883,29,431.619,440.418,440.984,28.417,256.414,484.411,228.018,456.016,684.029,not5,not5NP
proactive,Stern,1,115825,pro_ste_run1_115825,NP,2,3,parade,2800,1,684,2,2,555501,564299,564983,111883,30,443.618,452.416,453.1,28.417,256.414,484.411,228.018,456.016,684.029,not5,not5NP
proactive,Stern,1,115825,pro_ste_run1_115825,NP,4,1,verse,1600,1,773,2,2,598694,607492,608265,111883,31,486.811,495.609,496.382,28.417,256.414,484.411,228.018,456.016,684.029,not5,not5NP
proactive,Stern,1,115825,pro_ste_run1_115825,NN,3,2,torch,1600,1,584,1,1,610692,619490,620074,111883,32,498.809,507.607,508.191,28.417,256.414,484.411,228.018,456.016,684.029,not5,not5NN
proactive,Stern,1,115825,pro_ste_run1_115825,NN,5,2,deal,1600,1,769,1,1,622690,631505,632274,111883,33,510.807,519.622,520.391,28.417,256.414,484.411,228.018,456.016,684.029,LL5,LL5NN
proactive,Stern,1,115825,pro_ste_run1_115825,NP,5,3,clay,4000,1,626,2,2,634705,643503,644129,111883,34,522.822,531.62,532.246,28.417,256.414,484.411,228.018,456.016,684.029,LL5,LL5NP
proactive,Stern,1,115825,pro_ste_run1_115825,NP,5,3,forest,4000,1,843,2,2,649102,657901,658744,111883,35,537.219,546.018,546.861,28.417,256.414,484.411,228.018,456.016,684.029,LL5,LL5NP
proactive,Stern,1,115825,pro_ste_run1_115825,NP,3,1,charge,4000,1,742,2,2,663500,672299,673041,111883,36,551.617,560.416,561.158,28.417,256.414,484.411,228.018,456.016,684.029,not5,not5NP
proactive,Stern,1,115825,pro_ste_run1_115825,NN,2,2,moose,2800,1,1267,1,1,677898,686696,687963,111883,37,566.015,574.813,576.08,28.417,256.414,484.411,228.018,456.016,684.029,not5,not5NN
proactive,Stern,1,115825,pro_ste_run1_115825,RN,5,1,chest,2800,1,955,1,1,691096,699894,700849,111883,38,579.213,588.011,588.966,28.417,256.414,484.411,228.018,456.016,684.029,LL5,LL5RN
proactive,Stern,1,115825,pro_ste_run1_115825,NP,2,2,paste,4000,1,644,2,2,704294,713092,713736,111883,39,592.411,601.209,601.853,28.417,256.414,484.411,228.018,456.016,684.029,not5,not5NP
proactive,Stern,1,115825,pro_ste_run1_115825,NN,3,2,donor,2800,1,723,1,1,718691,727490,728213,111883,40,606.808,615.607,616.33,28.417,256.414,484.411,228.018,456.016,684.029,not5,not5NN
proactive,Stern,1,115825,pro_ste_run1_115825,NP,5,3,advice,2800,1,379,2,2,731906,740705,741084,111883,41,620.023,628.822,629.201,28.417,256.414,484.411,228.018,456.016,684.029,LL5,LL5NP
proactive,Stern,1,115825,pro_ste_run1_115825,NN,2,2,work,2800,1,516,1,1,745104,753902,754418,111883,42,633.221,642.019,642.535,28.417,256.414,484.411,228.018,456.016,684.029,not5,not5NN
proactive,Stern,1,115825,pro_ste_run1_115825,RN,2,1,bags,1600,1,888,1,1,758302,767100,767988,111883,43,646.419,655.217,656.105,28.417,256.414,484.411,228.018,456.016,684.029,not5,not5RN
proactive,Stern,1,115825,pro_ste_run1_115825,NN,5,2,group,4000,1,915,1,1,770300,779098,780013,111883,44,658.417,667.215,668.13,28.417,256.414,484.411,228.018,456.016,684.029,LL5,LL5NN
proactive,Stern,1,115825,pro_ste_run1_115825,NP,2,2,guys,1600,1,920,2,2,784698,793496,794416,111883,45,672.815,681.613,682.533,28.417,256.414,484.411,228.018,456.016,684.029,not5,not5NP
proactive,Stern,2,115825,pro_ste_run2_115825,NN,4,1,campus,2800,1,1032,1,1,62373,71172,72204,31562,1,30.811,39.61,40.642,28.412,256.409,484.406,228.014,456.011,684.008,not5,not5NN
proactive,Stern,2,115825,pro_ste_run2_115825,NP,5,3,snap,4000,1,778,2,2,75571,84370,85148,31562,2,44.009,52.808,53.586,28.412,256.409,484.406,228.014,456.011,684.008,LL5,LL5NP
proactive,Stern,2,115825,pro_ste_run2_115825,NP,4,1,belief,1600,0,0,,2,89969,98768,0,31562,3,58.407,67.206,-31.562,28.412,256.409,484.406,228.014,456.011,684.008,not5,not5NP
proactive,Stern,2,115825,pro_ste_run2_115825,NP,3,1,drip,2800,1,749,2,2,101967,110766,111515,31562,4,70.405,79.204,79.953,28.412,256.409,484.406,228.014,456.011,684.008,not5,not5NP
proactive,Stern,2,115825,pro_ste_run2_115825,NP,2,2,bottle,2800,1,663,2,2,115165,123964,124627,31562,5,83.603,92.402,93.065,28.412,256.409,484.406,228.014,456.011,684.008,not5,not5NP
proactive,Stern,2,115825,pro_ste_run2_115825,RN,5,1,level,1600,0,803,2,1,128363,137178,137981,31562,6,96.801,105.616,106.419,28.412,256.409,484.406,228.014,456.011,684.008,LL5,LL5RN
proactive,Stern,2,115825,pro_ste_run2_115825,NN,2,2,spice,2800,1,854,1,1,140378,149176,150030,31562,7,108.816,117.614,118.468,28.412,256.409,484.406,228.014,456.011,684.008,not5,not5NN
proactive,Stern,2,115825,pro_ste_run2_115825,NN,2,2,coal,2800,1,1481,1,1,153576,162374,163855,31562,8,122.014,130.812,132.293,28.412,256.409,484.406,228.014,456.011,684.008,not5,not5NN
proactive,Stern,2,115825,pro_ste_run2_115825,NN,3,1,film,4000,1,876,1,1,166774,175572,176448,31562,9,135.212,144.01,144.886,28.412,256.409,484.406,228.014,456.011,684.008,not5,not5NN
proactive,Stern,2,115825,pro_ste_run2_115825,RN,3,1,singer,1600,1,1471,1,1,181171,189970,191441,31562,10,149.609,158.408,159.879,28.412,256.409,484.406,228.014,456.011,684.008,not5,not5RN
proactive,Stern,2,115825,pro_ste_run2_115825,NN,5,2,herd,4000,1,955,1,1,193169,201968,202923,31562,11,161.607,170.406,171.361,28.412,256.409,484.406,228.014,456.011,684.008,LL5,LL5NN
proactive,Stern,2,115825,pro_ste_run2_115825,NP,5,3,flight,4000,1,882,2,2,207567,216366,217248,31562,12,176.005,184.804,185.686,28.412,256.409,484.406,228.014,456.011,684.008,LL5,LL5NP
proactive,Stern,2,115825,pro_ste_run2_115825,NP,2,2,quote,1600,1,583,2,2,221965,230763,231346,31562,13,190.403,199.201,199.784,28.412,256.409,484.406,228.014,456.011,684.008,not5,not5NP
proactive,Stern,2,115825,pro_ste_run2_115825,NN,5,2,fury,1600,1,807,1,1,233963,242778,243585,31562,14,202.401,211.216,212.023,28.412,256.409,484.406,228.014,456.011,684.008,LL5,LL5NN
proactive,Stern,2,115825,pro_ste_run2_115825,NP,5,3,stroke,4000,1,1483,2,2,245978,254776,256259,31562,15,214.416,223.214,224.697,28.412,256.409,484.406,228.014,456.011,684.008,LL5,LL5NP
proactive,Stern,2,115825,pro_ste_run2_115825,NP,3,2,gold,1600,1,757,2,2,290371,299169,299926,31562,16,258.809,267.607,268.364,28.412,256.409,484.406,228.014,456.011,684.008,not5,not5NP
proactive,Stern,2,115825,pro_ste_run2_115825,NP,3,2,sailor,1600,1,731,2,2,302369,311167,311898,31562,17,270.807,279.605,280.336,28.412,256.409,484.406,228.014,456.011,684.008,not5,not5NP
proactive,Stern,2,115825,pro_ste_run2_115825,NP,5,3,thing,4000,1,1030,2,2,314367,323165,324195,31562,18,282.805,291.603,292.633,28.412,256.409,484.406,228.014,456.011,684.008,LL5,LL5NP
proactive,Stern,2,115825,pro_ste_run2_115825,NN,5,2,kids,1600,1,626,1,1,328765,337563,338189,31562,19,297.203,306.001,306.627,28.412,256.409,484.406,228.014,456.011,684.008,LL5,LL5NN
proactive,Stern,2,115825,pro_ste_run2_115825,RN,2,1,onion,4000,0,732,2,1,340763,349578,350310,31562,20,309.201,318.016,318.748,28.412,256.409,484.406,228.014,456.011,684.008,not5,not5RN
proactive,Stern,2,115825,pro_ste_run2_115825,NP,5,3,grill,4000,1,825,2,2,355177,363976,364801,31562,21,323.615,332.414,333.239,28.412,256.409,484.406,228.014,456.011,684.008,LL5,LL5NP
proactive,Stern,2,115825,pro_ste_run2_115825,NN,4,1,barber,2800,0,1952,2,1,369575,378373,380325,31562,22,338.013,346.811,348.763,28.412,256.409,484.406,228.014,456.011,684.008,not5,not5NN
proactive,Stern,2,115825,pro_ste_run2_115825,NN,2,2,flaw,2800,1,537,1,1,382773,391571,392108,31562,23,351.211,360.009,360.546,28.412,256.409,484.406,228.014,456.011,684.008,not5,not5NN
proactive,Stern,2,115825,pro_ste_run2_115825,NN,3,1,grain,1600,1,1110,1,1,395971,404769,405879,31562,24,364.409,373.207,374.317,28.412,256.409,484.406,228.014,456.011,684.008,not5,not5NN
proactive,Stern,2,115825,pro_ste_run2_115825,NP,2,2,nerve,1600,0,0,,2,407969,416767,0,31562,25,376.407,385.205,-31.562,28.412,256.409,484.406,228.014,456.011,684.008,not5,not5NP
proactive,Stern,2,115825,pro_ste_run2_115825,NP,5,3,class,4000,1,915,2,2,419967,428765,429680,31562,26,388.405,397.203,398.118,28.412,256.409,484.406,228.014,456.011,684.008,LL5,LL5NP
proactive,Stern,2,115825,pro_ste_run2_115825,NN,2,2,tally,2800,1,784,1,1,434365,443163,443947,31562,27,402.803,411.601,412.385,28.412,256.409,484.406,228.014,456.011,684.008,not5,not5NN
proactive,Stern,2,115825,pro_ste_run2_115825,NP,2,2,photo,2800,1,1177,2,2,447562,456378,457555,31562,28,416,424.816,425.993,28.412,256.409,484.406,228.014,456.011,684.008,not5,not5NP
proactive,Stern,2,115825,pro_ste_run2_115825,NN,5,2,zebra,4000,1,1027,1,1,460777,469576,470603,31562,29,429.215,438.014,439.041,28.412,256.409,484.406,228.014,456.011,684.008,LL5,LL5NN
proactive,Stern,2,115825,pro_ste_run2_115825,RN,5,1,pupil,2800,0,744,2,1,475175,483973,484717,31562,30,443.613,452.411,453.155,28.412,256.409,484.406,228.014,456.011,684.008,LL5,LL5RN
proactive,Stern,2,115825,pro_ste_run2_115825,NN,2,1,list,4000,1,734,1,1,518368,527166,527900,31562,31,486.806,495.604,496.338,28.412,256.409,484.406,228.014,456.011,684.008,not5,not5NN
proactive,Stern,2,115825,pro_ste_run2_115825,NP,3,1,tissue,4000,1,1106,2,2,532766,541564,542670,31562,32,501.204,510.002,511.108,28.412,256.409,484.406,228.014,456.011,684.008,not5,not5NP
proactive,Stern,2,115825,pro_ste_run2_115825,NP,2,3,point,2800,0,1864,1,2,547163,555962,557826,31562,33,515.601,524.4,526.264,28.412,256.409,484.406,228.014,456.011,684.008,not5,not5NP
proactive,Stern,2,115825,pro_ste_run2_115825,NN,5,2,output,1600,1,918,1,1,560378,569177,570095,31562,34,528.816,537.615,538.533,28.412,256.409,484.406,228.014,456.011,684.008,LL5,LL5NN
proactive,Stern,2,115825,pro_ste_run2_115825,NP,5,3,finger,1600,1,712,2,2,572376,581175,581887,31562,35,540.814,549.613,550.325,28.412,256.409,484.406,228.014,456.011,684.008,LL5,LL5NP
proactive,Stern,2,115825,pro_ste_run2_115825,NP,2,3,grace,1600,1,847,2,2,584374,593173,594020,31562,36,552.812,561.611,562.458,28.412,256.409,484.406,228.014,456.011,684.008,not5,not5NP
proactive,Stern,2,115825,pro_ste_run2_115825,NN,3,2,filter,4000,0,0,,1,596372,605171,0,31562,37,564.81,573.609,-31.562,28.412,256.409,484.406,228.014,456.011,684.008,not5,not5NN
proactive,Stern,2,115825,pro_ste_run2_115825,NP,5,3,click,2800,0,1219,1,2,610770,619569,620788,31562,38,579.208,588.007,589.226,28.412,256.409,484.406,228.014,456.011,684.008,LL5,LL5NP
proactive,Stern,2,115825,pro_ste_run2_115825,NN,3,2,cows,2800,0,0,,1,623968,632766,0,31562,39,592.406,601.204,-31.562,28.412,256.409,484.406,228.014,456.011,684.008,not5,not5NN
proactive,Stern,2,115825,pro_ste_run2_115825,RN,5,1,need,4000,0,0,,1,637166,645964,0,31562,40,605.604,614.402,-31.562,28.412,256.409,484.406,228.014,456.011,684.008,LL5,LL5RN
proactive,Stern,2,115825,pro_ste_run2_115825,NP,5,3,void,1600,1,642,2,2,651563,660362,661004,31562,41,620.001,628.8,629.442,28.412,256.409,484.406,228.014,456.011,684.008,LL5,LL5NP
proactive,Stern,2,115825,pro_ste_run2_115825,NP,2,3,talent,2800,1,500,2,2,663562,672377,672877,31562,42,632,640.815,641.315,28.412,256.409,484.406,228.014,456.011,684.008,not5,not5NP
proactive,Stern,2,115825,pro_ste_run2_115825,NP,4,1,clown,2800,1,656,2,2,676776,685575,686231,31562,43,645.214,654.013,654.669,28.412,256.409,484.406,228.014,456.011,684.008,not5,not5NP
proactive,Stern,2,115825,pro_ste_run2_115825,NN,5,2,signal,4000,1,880,1,1,689974,698773,699653,31562,44,658.412,667.211,668.091,28.412,256.409,484.406,228.014,456.011,684.008,LL5,LL5NN
proactive,Stern,2,115825,pro_ste_run2_115825,NN,4,1,grip,1600,1,1128,1,1,704372,713170,714298,31562,45,672.81,681.608,682.736,28.412,256.409,484.406,228.014,456.011,684.008,not5,not5NN
reactive,Stern,1,115825,rea_ste_run1_115825,NP,8,2,brow,2800,1,1290,2,2,136359,145157,146447,105530,1,30.829,39.627,40.917,28.429,256.426,484.423,228.031,456.028,684.025,not5,not5NP
reactive,Stern,1,115825,rea_ste_run1_115825,RN,5,2,jets,4000,0,1303,2,1,149557,158355,159658,105530,2,44.027,52.825,54.128,28.429,256.426,484.423,228.031,456.028,684.025,LL5,LL5RN
reactive,Stern,1,115825,rea_ste_run1_115825,NP,5,3,touch,2800,1,729,2,2,163954,172753,173482,105530,3,58.424,67.223,67.952,28.429,256.426,484.423,228.031,456.028,684.025,LL5,LL5NP
reactive,Stern,1,115825,rea_ste_run1_115825,NP,5,3,pound,4000,1,764,2,2,177152,185951,186715,105530,4,71.622,80.421,81.185,28.429,256.426,484.423,228.031,456.028,684.025,LL5,LL5NP
reactive,Stern,1,115825,rea_ste_run1_115825,RN,7,1,rivals,2800,0,1029,2,1,191550,200349,201378,105530,5,86.02,94.819,95.848,28.429,256.426,484.423,228.031,456.028,684.025,not5,not5RN
reactive,Stern,1,115825,rea_ste_run1_115825,NP,6,1,name,1600,0,0,,2,204748,213546,0,105530,6,99.218,108.016,-105.53,28.429,256.426,484.423,228.031,456.028,684.025,not5,not5NP
reactive,Stern,1,115825,rea_ste_run1_115825,NP,7,2,world,4000,0,1143,1,2,216746,225545,226688,105530,7,111.216,120.015,121.158,28.429,256.426,484.423,228.031,456.028,684.025,not5,not5NP
reactive,Stern,1,115825,rea_ste_run1_115825,RN,8,2,marker,1600,1,1529,1,1,231144,239959,241488,105530,8,125.614,134.429,135.958,28.429,256.426,484.423,228.031,456.028,684.025,not5,not5RN
reactive,Stern,1,115825,rea_ste_run1_115825,NP,5,3,wife,2800,1,866,2,2,243158,251957,252823,105530,9,137.628,146.427,147.293,28.429,256.426,484.423,228.031,456.028,684.025,LL5,LL5NP
reactive,Stern,1,115825,rea_ste_run1_115825,RN,5,2,paper,4000,1,1005,1,1,256356,265155,266160,105530,10,150.826,159.625,160.63,28.429,256.426,484.423,228.031,456.028,684.025,LL5,LL5RN
reactive,Stern,1,115825,rea_ste_run1_115825,NN,5,1,chin,1600,1,1070,1,1,270754,279553,280623,105530,11,165.224,174.023,175.093,28.429,256.426,484.423,228.031,456.028,684.025,LL5,LL5NN
reactive,Stern,1,115825,rea_ste_run1_115825,NP,7,2,grill,2800,1,974,2,2,282752,291551,292525,105530,12,177.222,186.021,186.995,28.429,256.426,484.423,228.031,456.028,684.025,not5,not5NP
reactive,Stern,1,115825,rea_ste_run1_115825,RN,8,2,rhyme,4000,0,868,2,1,295950,304749,305617,105530,13,190.42,199.219,200.087,28.429,256.426,484.423,228.031,456.028,684.025,not5,not5RN
reactive,Stern,1,115825,rea_ste_run1_115825,NP,8,2,goods,1600,0,874,1,2,310348,319146,320020,105530,14,204.818,213.616,214.49,28.429,256.426,484.423,228.031,456.028,684.025,not5,not5NP
reactive,Stern,1,115825,rea_ste_run1_115825,RN,6,1,reign,1600,1,907,1,1,322346,331144,332051,105530,15,216.816,225.614,226.521,28.429,256.426,484.423,228.031,456.028,684.025,not5,not5RN
reactive,Stern,1,115825,rea_ste_run1_115825,NP,5,3,harbor,2800,1,674,2,2,364356,373154,373828,105530,16,258.826,267.624,268.298,28.429,256.426,484.423,228.031,456.028,684.025,LL5,LL5NP
reactive,Stern,1,115825,rea_ste_run1_115825,RN,7,1,boat,1600,1,920,1,1,377554,386352,387272,105530,17,272.024,280.822,281.742,28.429,256.426,484.423,228.031,456.028,684.025,not5,not5RN
reactive,Stern,1,115825,rea_ste_run1_115825,RN,8,2,hour,2800,0,1146,2,1,389552,398350,399496,105530,18,284.022,292.82,293.966,28.429,256.426,484.423,228.031,456.028,684.025,not5,not5RN
reactive,Stern,1,115825,rea_ste_run1_115825,NP,8,3,tongue,4000,1,714,2,2,402750,411548,412262,105530,19,297.22,306.018,306.732,28.429,256.426,484.423,228.031,456.028,684.025,not5,not5NP
reactive,Stern,1,115825,rea_ste_run1_115825,RN,6,1,beam,1600,1,1498,1,1,417147,425946,427444,105530,20,311.617,320.416,321.914,28.429,256.426,484.423,228.031,456.028,684.025,not5,not5RN
reactive,Stern,1,115825,rea_ste_run1_115825,NN,5,1,ruler,1600,1,722,1,1,429146,437944,438666,105530,21,323.616,332.414,333.136,28.429,256.426,484.423,228.031,456.028,684.025,LL5,LL5NN
reactive,Stern,1,115825,rea_ste_run1_115825,NP,5,3,dryer,2800,1,837,2,2,441144,449959,450796,105530,22,335.614,344.429,345.266,28.429,256.426,484.423,228.031,456.028,684.025,LL5,LL5NP
reactive,Stern,1,115825,rea_ste_run1_115825,RN,8,2,jazz,2800,0,0,,1,454358,463157,0,105530,23,348.828,357.627,-105.53,28.429,256.426,484.423,228.031,456.028,684.025,not5,not5RN
reactive,Stern,1,115825,rea_ste_run1_115825,RN,5,2,blaze,2800,1,1230,1,1,467556,476355,477585,105530,24,362.026,370.825,372.055,28.429,256.426,484.423,228.031,456.028,684.025,LL5,LL5RN
reactive,Stern,1,115825,rea_ste_run1_115825,NP,8,3,visit,4000,1,1464,2,2,480754,489553,491017,105530,25,375.224,384.023,385.487,28.429,256.426,484.423,228.031,456.028,684.025,not5,not5NP
reactive,Stern,1,115825,rea_ste_run1_115825,RN,5,2,ideals,1600,0,1269,2,1,495152,503950,505219,105530,26,389.622,398.42,399.689,28.429,256.426,484.423,228.031,456.028,684.025,LL5,LL5RN
reactive,Stern,1,115825,rea_ste_run1_115825,NP,5,3,plate,4000,1,997,2,2,507150,515948,516945,105530,27,401.62,410.418,411.415,28.429,256.426,484.423,228.031,456.028,684.025,LL5,LL5NP
reactive,Stern,1,115825,rea_ste_run1_115825,NP,7,2,spark,1600,1,1386,2,2,521548,530346,531732,105530,28,416.018,424.816,426.202,28.429,256.426,484.423,228.031,456.028,684.025,not5,not5NP
reactive,Stern,1,115825,rea_ste_run1_115825,NP,8,3,males,4000,0,1210,1,2,533546,542344,543554,105530,29,428.016,436.814,438.024,28.429,256.426,484.423,228.031,456.028,684.025,not5,not5NP
reactive,Stern,1,115825,rea_ste_run1_115825,NP,7,2,setup,4000,0,654,1,2,547960,556759,557413,105530,30,442.43,451.229,451.883,28.429,256.426,484.423,228.031,456.028,684.025,not5,not5NP
reactive,Stern,1,115825,rea_ste_run1_115825,NP,5,3,answer,1600,1,792,2,2,592353,601152,601944,105530,31,486.823,495.622,496.414,28.429,256.426,484.423,228.031,456.028,684.025,LL5,LL5NP
reactive,Stern,1,115825,rea_ste_run1_115825,RN,5,2,hawk,1600,0,821,2,1,604351,613150,613971,105530,32,498.821,507.62,508.441,28.429,256.426,484.423,228.031,456.028,684.025,LL5,LL5RN
reactive,Stern,1,115825,rea_ste_run1_115825,NN,8,1,train,4000,1,680,1,1,616349,625148,625828,105530,33,510.819,519.618,520.298,28.429,256.426,484.423,228.031,456.028,684.025,not5,not5NN
reactive,Stern,1,115825,rea_ste_run1_115825,RN,8,2,poppy,4000,1,1070,1,1,630747,639546,640616,105530,34,525.217,534.016,535.086,28.429,256.426,484.423,228.031,456.028,684.025,not5,not5RN
reactive,Stern,1,115825,rea_ste_run1_115825,RN,7,2,wave,2800,0,0,,1,645145,653960,0,105530,35,539.615,548.43,-105.53,28.429,256.426,484.423,228.031,456.028,684.025,not5,not5RN
reactive,Stern,1,115825,rea_ste_run1_115825,RN,8,2,days,2800,1,818,1,1,658359,667158,667976,105530,36,552.829,561.628,562.446,28.429,256.426,484.423,228.031,456.028,684.025,not5,not5RN
reactive,Stern,1,115825,rea_ste_run1_115825,RN,7,2,need,1600,0,1289,2,1,671557,680356,681645,105530,37,566.027,574.826,576.115,28.429,256.426,484.423,228.031,456.028,684.025,not5,not5RN
reactive,Stern,1,115825,rea_ste_run1_115825,NP,5,3,hose,1600,1,809,2,2,683555,692354,693163,105530,38,578.025,586.824,587.633,28.429,256.426,484.423,228.031,456.028,684.025,LL5,LL5NP
reactive,Stern,1,115825,rea_ste_run1_115825,RN,5,2,drip,2800,0,1128,2,1,695553,704352,705480,105530,39,590.023,598.822,599.95,28.429,256.426,484.423,228.031,456.028,684.025,LL5,LL5RN
reactive,Stern,1,115825,rea_ste_run1_115825,NN,5,1,finger,1600,1,1033,1,1,708751,717550,718583,105530,40,603.221,612.02,613.053,28.429,256.426,484.423,228.031,456.028,684.025,LL5,LL5NN
reactive,Stern,1,115825,rea_ste_run1_115825,NP,8,2,charge,4000,1,1071,2,2,720749,729548,730619,105530,41,615.219,624.018,625.089,28.429,256.426,484.423,228.031,456.028,684.025,not5,not5NP
reactive,Stern,1,115825,rea_ste_run1_115825,NP,7,1,drum,4000,1,694,2,2,735147,743946,744640,105530,42,629.617,638.416,639.11,28.429,256.426,484.423,228.031,456.028,684.025,not5,not5NP
reactive,Stern,1,115825,rea_ste_run1_115825,NP,5,3,spell,2800,0,1454,1,2,749545,758360,759814,105530,43,644.015,652.83,654.284,28.429,256.426,484.423,228.031,456.028,684.025,LL5,LL5NP
reactive,Stern,1,115825,rea_ste_run1_115825,NP,6,1,people,2800,1,971,2,2,762759,771558,772529,105530,44,657.229,666.028,666.999,28.429,256.426,484.423,228.031,456.028,684.025,not5,not5NP
reactive,Stern,1,115825,rea_ste_run1_115825,NP,8,2,rattle,4000,0,1096,1,2,775957,784756,785852,105530,45,670.427,679.226,680.322,28.429,256.426,484.423,228.031,456.028,684.025,not5,not5NP
reactive,Stern,2,115825,rea_ste_run2_115825,NN,5,1,food,1600,1,710,1,1,80546,89345,90055,49732,1,30.814,39.613,40.323,28.415,256.412,484.409,228.016,456.014,684.011,LL5,LL5NN
reactive,Stern,2,115825,rea_ste_run2_115825,NP,8,2,rider,1600,1,967,2,2,92544,101343,102310,49732,2,42.812,51.611,52.578,28.415,256.412,484.409,228.016,456.014,684.011,not5,not5NP
reactive,Stern,2,115825,rea_ste_run2_115825,RN,8,2,slug,2800,0,1258,2,1,104542,113341,114599,49732,3,54.81,63.609,64.867,28.415,256.412,484.409,228.016,456.014,684.011,not5,not5RN
reactive,Stern,2,115825,rea_ste_run2_115825,RN,8,2,witch,1600,1,829,1,1,117740,126539,127368,49732,4,68.008,76.807,77.636,28.415,256.412,484.409,228.016,456.014,684.011,not5,not5RN
reactive,Stern,2,115825,rea_ste_run2_115825,RN,5,2,stain,4000,1,926,1,1,129738,138537,139463,49732,5,80.006,88.805,89.731,28.415,256.412,484.409,228.016,456.014,684.011,LL5,LL5RN
reactive,Stern,2,115825,rea_ste_run2_115825,NN,7,1,herd,2800,1,906,1,1,144136,152935,153841,49732,6,94.404,103.203,104.109,28.415,256.412,484.409,228.016,456.014,684.011,not5,not5NN
reactive,Stern,2,115825,rea_ste_run2_115825,NP,7,1,flag,4000,0,1258,1,2,157334,166133,167391,49732,7,107.602,116.401,117.659,28.415,256.412,484.409,228.016,456.014,684.011,not5,not5NP
reactive,Stern,2,115825,rea_ste_run2_115825,RN,6,1,maid,4000,1,956,1,1,171748,180547,181503,49732,8,122.016,130.815,131.771,28.415,256.412,484.409,228.016,456.014,684.011,not5,not5RN
reactive,Stern,2,115825,rea_ste_run2_115825,NP,6,1,wall,4000,1,1919,2,2,186146,194945,196864,49732,9,136.414,145.213,147.132,28.415,256.412,484.409,228.016,456.014,684.011,not5,not5NP
reactive,Stern,2,115825,rea_ste_run2_115825,NP,5,3,zipper,1600,1,755,2,2,200544,209343,210098,49732,10,150.812,159.611,160.366,28.415,256.412,484.409,228.016,456.014,684.011,LL5,LL5NP
reactive,Stern,2,115825,rea_ste_run2_115825,RN,5,2,pair,4000,1,649,1,1,212542,221341,221990,49732,11,162.81,171.609,172.258,28.415,256.412,484.409,228.016,456.014,684.011,LL5,LL5RN
reactive,Stern,2,115825,rea_ste_run2_115825,NP,8,2,tree,1600,1,964,2,2,226940,235738,236702,49732,12,177.208,186.006,186.97,28.415,256.412,484.409,228.016,456.014,684.011,not5,not5NP
reactive,Stern,2,115825,rea_ste_run2_115825,NP,5,3,photo,2800,1,1301,2,2,238938,247736,249037,49732,13,189.206,198.004,199.305,28.415,256.412,484.409,228.016,456.014,684.011,LL5,LL5NP
reactive,Stern,2,115825,rea_ste_run2_115825,NP,5,3,girl,2800,1,926,2,2,252136,260934,261860,49732,14,202.404,211.202,212.128,28.415,256.412,484.409,228.016,456.014,684.011,LL5,LL5NP
reactive,Stern,2,115825,rea_ste_run2_115825,RN,7,1,quart,2800,1,631,1,1,265334,274149,274780,49732,15,215.602,224.417,225.048,28.415,256.412,484.409,228.016,456.014,684.011,not5,not5RN
reactive,Stern,2,115825,rea_ste_run2_115825,NN,8,1,rest,4000,1,836,1,1,308543,317342,318178,49732,16,258.811,267.61,268.446,28.415,256.412,484.409,228.016,456.014,684.011,not5,not5NN
reactive,Stern,2,115825,rea_ste_run2_115825,NP,7,2,singer,4000,0,812,1,2,322941,331740,332552,49732,17,273.209,282.008,282.82,28.415,256.412,484.409,228.016,456.014,684.011,not5,not5NP
reactive,Stern,2,115825,rea_ste_run2_115825,RN,8,2,prince,2800,1,1400,1,1,337339,346137,347537,49732,18,287.607,296.405,297.805,28.415,256.412,484.409,228.016,456.014,684.011,not5,not5RN
reactive,Stern,2,115825,rea_ste_run2_115825,NP,5,3,pals,1600,1,785,2,2,350537,359335,360120,49732,19,300.805,309.603,310.388,28.415,256.412,484.409,228.016,456.014,684.011,LL5,LL5NP
reactive,Stern,2,115825,rea_ste_run2_115825,NP,5,3,cotton,2800,1,1093,2,2,362535,371334,372427,49732,20,312.803,321.602,322.695,28.415,256.412,484.409,228.016,456.014,684.011,LL5,LL5NP
reactive,Stern,2,115825,rea_ste_run2_115825,NP,5,3,chest,2800,0,1188,1,2,375733,384548,385736,49732,21,326.001,334.816,336.004,28.415,256.412,484.409,228.016,456.014,684.011,LL5,LL5NP
reactive,Stern,2,115825,rea_ste_run2_115825,NP,8,2,dawn,4000,0,0,,2,388947,397746,0,49732,22,339.215,348.014,-49.732,28.415,256.412,484.409,228.016,456.014,684.011,not5,not5NP
reactive,Stern,2,115825,rea_ste_run2_115825,RN,5,2,praise,1600,0,1113,2,1,403345,412144,413257,49732,23,353.613,362.412,363.525,28.415,256.412,484.409,228.016,456.014,684.011,LL5,LL5RN
reactive,Stern,2,115825,rea_ste_run2_115825,RN,5,2,walker,2800,1,1201,1,1,415343,424142,425343,49732,24,365.611,374.41,375.611,28.415,256.412,484.409,228.016,456.014,684.011,LL5,LL5RN
reactive,Stern,2,115825,rea_ste_run2_115825,NN,5,1,grass,4000,1,765,1,1,428541,437340,438105,49732,25,378.809,387.608,388.373,28.415,256.412,484.409,228.016,456.014,684.011,LL5,LL5NN
reactive,Stern,2,115825,rea_ste_run2_115825,NP,8,2,charm,1600,0,0,,2,442939,451737,0,49732,26,393.207,402.005,-49.732,28.415,256.412,484.409,228.016,456.014,684.011,not5,not5NP
reactive,Stern,2,115825,rea_ste_run2_115825,RN,8,2,barber,2800,0,750,2,1,454937,463736,464486,49732,27,405.205,414.004,414.754,28.415,256.412,484.409,228.016,456.014,684.011,not5,not5RN
reactive,Stern,2,115825,rea_ste_run2_115825,RN,6,1,motor,4000,0,698,2,1,468135,476933,477631,49732,28,418.403,427.201,427.899,28.415,256.412,484.409,228.016,456.014,684.011,not5,not5RN
reactive,Stern,2,115825,rea_ste_run2_115825,RN,7,1,east,1600,1,831,1,1,482533,491348,492179,49732,29,432.801,441.616,442.447,28.415,256.412,484.409,228.016,456.014,684.011,not5,not5RN
reactive,Stern,2,115825,rea_ste_run2_115825,NP,7,2,oats,1600,0,0,,2,494547,503346,0,49732,30,444.815,453.614,-49.732,28.415,256.412,484.409,228.016,456.014,684.011,not5,not5NP
reactive,Stern,2,115825,rea_ste_run2_115825,NP,8,3,slip,2800,1,923,2,2,536541,545339,546262,49732,31,486.809,495.607,496.53,28.415,256.412,484.409,228.016,456.014,684.011,not5,not5NP
reactive,Stern,2,115825,rea_ste_run2_115825,RN,7,2,note,1600,1,633,1,1,549739,558537,559170,49732,32,500.007,508.805,509.438,28.415,256.412,484.409,228.016,456.014,684.011,not5,not5RN
reactive,Stern,2,115825,rea_ste_run2_115825,RN,5,2,tile,2800,1,873,1,1,561737,570535,571408,49732,33,512.005,520.803,521.676,28.415,256.412,484.409,228.016,456.014,684.011,LL5,LL5RN
reactive,Stern,2,115825,rea_ste_run2_115825,NP,5,3,winner,2800,0,1410,1,2,574935,583733,585143,49732,34,525.203,534.001,535.411,28.415,256.412,484.409,228.016,456.014,684.011,LL5,LL5NP
reactive,Stern,2,115825,rea_ste_run2_115825,NN,5,1,flick,4000,1,648,1,1,588149,596948,597596,49732,35,538.417,547.216,547.864,28.415,256.412,484.409,228.016,456.014,684.011,LL5,LL5NN
reactive,Stern,2,115825,rea_ste_run2_115825,NP,8,3,glove,2800,0,1907,1,2,602547,611345,613252,49732,36,552.815,561.613,563.52,28.415,256.412,484.409,228.016,456.014,684.011,not5,not5NP
reactive,Stern,2,115825,rea_ste_run2_115825,RN,5,2,list,2800,1,820,1,1,615745,624543,625363,49732,37,566.013,574.811,575.631,28.415,256.412,484.409,228.016,456.014,684.011,LL5,LL5RN
reactive,Stern,2,115825,rea_ste_run2_115825,NP,5,3,beach,1600,1,540,2,2,628943,637741,638281,49732,38,579.211,588.009,588.549,28.415,256.412,484.409,228.016,456.014,684.011,LL5,LL5NP
reactive,Stern,2,115825,rea_ste_run2_115825,NP,5,3,bugs,4000,0,0,,2,640941,649739,0,49732,39,591.209,600.007,-49.732,28.415,256.412,484.409,228.016,456.014,684.011,LL5,LL5NP
reactive,Stern,2,115825,rea_ste_run2_115825,NP,7,1,suit,4000,1,650,2,2,655338,664137,664787,49732,40,605.606,614.405,615.055,28.415,256.412,484.409,228.016,456.014,684.011,not5,not5NP
reactive,Stern,2,115825,rea_ste_run2_115825,RN,8,1,dock,1600,0,1035,2,1,669736,678535,679570,49732,41,620.004,628.803,629.838,28.415,256.412,484.409,228.016,456.014,684.011,not5,not5RN
reactive,Stern,2,115825,rea_ste_run2_115825,RN,6,1,folder,1600,1,542,1,1,681734,690533,691075,49732,42,632.002,640.801,641.343,28.415,256.412,484.409,228.016,456.014,684.011,not5,not5RN
reactive,Stern,2,115825,rea_ste_run2_115825,NP,8,3,owner,4000,1,890,2,2,693749,702548,703438,49732,43,644.017,652.816,653.706,28.415,256.412,484.409,228.016,456.014,684.011,not5,not5NP
reactive,Stern,2,115825,rea_ste_run2_115825,NP,6,1,washer,4000,1,766,2,2,708147,716945,717711,49732,44,658.415,667.213,667.979,28.415,256.412,484.409,228.016,456.014,684.011,not5,not5NP
reactive,Stern,2,115825,rea_ste_run2_115825,RN,7,2,void,1600,0,0,,1,722544,731343,0,49732,45,672.812,681.611,-49.732,28.415,256.412,484.409,228.016,456.014,684.011,not5,not5RN
baseline,Stern,1,123117,bas_ste_run1_123117,NP,5,3,syrup,2800,1,1516,2,2,162627,171426,172942,131815,1,30.812,39.611,41.127,28.413,256.41,484.407,228.014,456.028,684.025,LL5,LL5NP
baseline,Stern,1,123117,bas_ste_run1_123117,NN,8,2,scale,1600,1,1044,1,1,175825,184624,185668,131815,2,44.01,52.809,53.853,28.413,256.41,484.407,228.014,456.028,684.025,not5,not5NN
baseline,Stern,1,123117,bas_ste_run1_123117,NN,8,2,doll,2800,1,932,1,1,187823,196622,197554,131815,3,56.008,64.807,65.739,28.413,256.41,484.407,228.014,456.028,684.025,not5,not5NN
